"subjid";"trialno";"choice";"RT";"keypressed";"position_gambleA";"position_outcome1";"rewA1";"rewA2";"probA1";"probA2";"rewB1";"rewB2";"probB1";"probB2";"typeA";"typeB";"domainA1";"domainA2";"domainB1";"domainB2";"rewA1int";"rewA2int";"rewB1int";"rewB2int";"order";"age";"gender";"reward_LA";"general_risk";"general_time";"general_impulsivity";"agegroup";"dsst_n_responses";"dsst_n_accurate";"dsst_pcnt_accurate";"numeracy_n_accurate";"numeracy_pcnt_accurate";"practice_ind";"EV_A";"EV_B";"SD_A";"SD_B";"CV_A";"CV_B";"safeoption";"higherEV";"higherSD";"higherCV";"higherEV_SD";"higher_EV_choice";"higher_SD_choice";"higher_CV_choice"
1;4;"A";3.22337822383;"j";"right";"up";-6;6;50;50;"-3";0;100;0;"risky mixed";"simple safe";"loss";"gain";"loss";"gain";-6;6;-3;0;"[03framing.py, 01choiceLA.py, 01choiceDD.py, 03framing_block2.py, 05numeracy.py, 04dsst.py, 02demographics.py]";25;"w";5;3;2;7;"YA";56;56;1;5;0.714285714285714;FALSE;0;-3;6;0;Inf;0;1;"A";"A";"A";1;1;1;1
1;61;"B";9.69502872519;"f";"right";"down";-9;6;50;50;"(0.5 x 8) - (0.5 x 2)";0;100;0;"risky mixed";"complex safe";"loss";"gain";"gain";"gain";-9;6;3;0;"[03framing.py, 01choiceLA.py, 01choiceDD.py, 03framing_block2.py, 05numeracy.py, 04dsst.py, 02demographics.py]";25;"w";5;3;2;7;"YA";56;56;1;5;0.714285714285714;FALSE;-1.5;3;7.5;0;5;0;1;"B";"A";"A";0;1;0;0
1;24;"A";18.2832905189;"f";"left";"down";-8;6;50;50;"-10";4;50;50;"risky mixed";"risky mixed";"loss";"gain";"loss";"gain";-8;6;-10;4;"[03framing.py, 01choiceLA.py, 01choiceDD.py, 03framing_block2.py, 05numeracy.py, 04dsst.py, 02demographics.py]";25;"w";5;3;2;7;"YA";56;56;1;5;0.714285714285714;FALSE;-1;-3;7;7;7;2.33333333333333;0;"A";"B";"A";0;1;0;1
1;54;"A";13.462508755;"f";"left";"down";-9;6;50;50;"(0.5 x 5) - (0.5 x 5)";0;100;0;"risky mixed";"complex safe";"loss";"gain";"gain";"gain";-9;6;0;0;"[03framing.py, 01choiceLA.py, 01choiceDD.py, 03framing_block2.py, 05numeracy.py, 04dsst.py, 02demographics.py]";25;"w";5;3;2;7;"YA";56;56;1;5;0.714285714285714;FALSE;-1.5;0;7.5;0;5;NA;1;"B";"A";NA;0;0;1;NA
1;31;"B";7.88774874106;"j";"left";"down";-7;6;50;50;"-6";6;50;50;"risky mixed";"risky mixed";"loss";"gain";"loss";"gain";-7;6;-6;6;"[03framing.py, 01choiceLA.py, 01choiceDD.py, 03framing_block2.py, 05numeracy.py, 04dsst.py, 02demographics.py]";25;"w";5;3;2;7;"YA";56;56;1;5;0.714285714285714;FALSE;-0.5;0;6.5;6;13;Inf;0;"B";"A";"B";0;1;0;1
1;27;"A";10.8251836328;"f";"left";"up";-5;6;50;50;"-8";8;50;50;"risky mixed";"risky mixed";"loss";"gain";"loss";"gain";-5;6;-8;8;"[03framing.py, 01choiceLA.py, 01choiceDD.py, 03framing_block2.py, 05numeracy.py, 04dsst.py, 02demographics.py]";25;"w";5;3;2;7;"YA";56;56;1;5;0.714285714285714;FALSE;0.5;0;5.5;8;11;Inf;0;"A";"B";"B";0;1;0;0
1;38;"A";5.20924503294;"j";"right";"down";-3;6;50;50;"-3";3;50;50;"risky mixed";"risky mixed";"loss";"gain";"loss";"gain";-3;6;-3;3;"[03framing.py, 01choiceLA.py, 01choiceDD.py, 03framing_block2.py, 05numeracy.py, 04dsst.py, 02demographics.py]";25;"w";5;3;2;7;"YA";56;56;1;5;0.714285714285714;FALSE;1.5;0;4.5;3;3;Inf;0;"A";"A";"B";1;1;1;0
1;41;"B";8.03128407791;"j";"left";"down";-6;6;50;50;"-1";7;50;50;"risky mixed";"risky mixed";"loss";"gain";"loss";"gain";-6;6;-1;7;"[03framing.py, 01choiceLA.py, 01choiceDD.py, 03framing_block2.py, 05numeracy.py, 04dsst.py, 02demographics.py]";25;"w";5;3;2;7;"YA";56;56;1;5;0.714285714285714;FALSE;0;3;6;4;Inf;1.33333333333333;0;"B";"A";"A";0;1;0;0
1;47;"A";18.133508673;"f";"left";"up";-9;6;50;50;"(0.5 x 2) - (0.5 x 8)";0;100;0;"risky mixed";"complex safe";"loss";"gain";"loss";"gain";-9;6;-3;0;"[03framing.py, 01choiceLA.py, 01choiceDD.py, 03framing_block2.py, 05numeracy.py, 04dsst.py, 02demographics.py]";25;"w";5;3;2;7;"YA";56;56;1;5;0.714285714285714;FALSE;-1.5;-3;7.5;0;5;0;1;"A";"A";"A";1;1;1;1
1;30;"A";9.07097598034;"j";"right";"up";-6;6;50;50;"-7";1;50;50;"risky mixed";"risky mixed";"loss";"gain";"loss";"gain";-6;6;-7;1;"[03framing.py, 01choiceLA.py, 01choiceDD.py, 03framing_block2.py, 05numeracy.py, 04dsst.py, 02demographics.py]";25;"w";5;3;2;7;"YA";56;56;1;5;0.714285714285714;FALSE;0;-3;6;4;Inf;1.33333333333333;0;"A";"A";"A";1;1;1;1
1;34;"B";6.54862280904;"j";"left";"down";-9;6;50;50;"-5";5;50;50;"risky mixed";"risky mixed";"loss";"gain";"loss";"gain";-9;6;-5;5;"[03framing.py, 01choiceLA.py, 01choiceDD.py, 03framing_block2.py, 05numeracy.py, 04dsst.py, 02demographics.py]";25;"w";5;3;2;7;"YA";56;56;1;5;0.714285714285714;FALSE;-1.5;0;7.5;5;5;Inf;0;"B";"A";"B";0;1;0;1
1;19;"B";4.3577274853;"j";"left";"up";-7;6;50;50;"3";0;100;0;"risky mixed";"simple safe";"loss";"gain";"gain";"gain";-7;6;3;0;"[03framing.py, 01choiceLA.py, 01choiceDD.py, 03framing_block2.py, 05numeracy.py, 04dsst.py, 02demographics.py]";25;"w";5;3;2;7;"YA";56;56;1;5;0.714285714285714;FALSE;-0.5;3;6.5;0;13;0;1;"B";"A";"A";0;1;0;0
1;14;"B";4.86755937868;"f";"right";"up";-9;6;50;50;"0";0;100;0;"risky mixed";"simple safe";"loss";"gain";"gain";"gain";-9;6;0;0;"[03framing.py, 01choiceLA.py, 01choiceDD.py, 03framing_block2.py, 05numeracy.py, 04dsst.py, 02demographics.py]";25;"w";5;3;2;7;"YA";56;56;1;5;0.714285714285714;FALSE;-1.5;0;7.5;0;5;NA;1;"B";"A";NA;0;1;0;NA
1;60;"B";13.414379106;"j";"left";"down";-7;6;50;50;"(0.5 x 9) - (0.5 x 3)";0;100;0;"risky mixed";"complex safe";"loss";"gain";"gain";"gain";-7;6;3;0;"[03framing.py, 01choiceLA.py, 01choiceDD.py, 03framing_block2.py, 05numeracy.py, 04dsst.py, 02demographics.py]";25;"w";5;3;2;7;"YA";56;56;1;5;0.714285714285714;FALSE;-0.5;3;6.5;0;13;0;1;"B";"A";"A";0;1;0;0
1;25;"A";8.47841039559;"f";"left";"down";-4;6;50;50;"-9";9;50;50;"risky mixed";"risky mixed";"loss";"gain";"loss";"gain";-4;6;-9;9;"[03framing.py, 01choiceLA.py, 01choiceDD.py, 03framing_block2.py, 05numeracy.py, 04dsst.py, 02demographics.py]";25;"w";5;3;2;7;"YA";56;56;1;5;0.714285714285714;FALSE;1;0;5;9;5;Inf;0;"A";"B";"B";0;1;0;0
1;20;"B";4.84654771351;"j";"left";"up";-8;6;50;50;"3";0;100;0;"risky mixed";"simple safe";"loss";"gain";"gain";"gain";-8;6;3;0;"[03framing.py, 01choiceLA.py, 01choiceDD.py, 03framing_block2.py, 05numeracy.py, 04dsst.py, 02demographics.py]";25;"w";5;3;2;7;"YA";56;56;1;5;0.714285714285714;FALSE;-1;3;7;0;7;0;1;"B";"A";"A";0;1;0;0
1;1;"A";5.5151458313;"f";"left";"down";-3;6;50;50;"-3";0;100;0;"risky mixed";"simple safe";"loss";"gain";"loss";"gain";-3;6;-3;0;"[03framing.py, 01choiceLA.py, 01choiceDD.py, 03framing_block2.py, 05numeracy.py, 04dsst.py, 02demographics.py]";25;"w";5;3;2;7;"YA";56;56;1;5;0.714285714285714;FALSE;1.5;-3;4.5;0;3;0;1;"A";"A";"A";1;1;1;1
1;18;"B";5.69176306375;"j";"left";"down";-6;6;50;50;"3";0;100;0;"risky mixed";"simple safe";"loss";"gain";"gain";"gain";-6;6;3;0;"[03framing.py, 01choiceLA.py, 01choiceDD.py, 03framing_block2.py, 05numeracy.py, 04dsst.py, 02demographics.py]";25;"w";5;3;2;7;"YA";56;56;1;5;0.714285714285714;FALSE;0;3;6;0;Inf;0;1;"B";"A";"A";0;1;0;0
1;32;"A";12.1988861787;"f";"left";"up";-3;6;50;50;"-6";0;50;50;"risky mixed";"risky mixed";"loss";"gain";"loss";"gain";-3;6;-6;0;"[03framing.py, 01choiceLA.py, 01choiceDD.py, 03framing_block2.py, 05numeracy.py, 04dsst.py, 02demographics.py]";25;"w";5;3;2;7;"YA";56;56;1;5;0.714285714285714;FALSE;1.5;-3;4.5;3;3;1;0;"A";"A";"A";1;1;1;1
1;11;"A";7.18367967205;"f";"left";"down";-6;6;50;50;"0";0;100;0;"risky mixed";"simple safe";"loss";"gain";"gain";"gain";-6;6;0;0;"[03framing.py, 01choiceLA.py, 01choiceDD.py, 03framing_block2.py, 05numeracy.py, 04dsst.py, 02demographics.py]";25;"w";5;3;2;7;"YA";56;56;1;5;0.714285714285714;FALSE;0;0;6;0;Inf;NA;1;"B";"A";NA;0;0;1;NA
1;28;"A";7.58904059871;"j";"right";"up";-9;6;50;50;"-8";2;50;50;"risky mixed";"risky mixed";"loss";"gain";"loss";"gain";-9;6;-8;2;"[03framing.py, 01choiceLA.py, 01choiceDD.py, 03framing_block2.py, 05numeracy.py, 04dsst.py, 02demographics.py]";25;"w";5;3;2;7;"YA";56;56;1;5;0.714285714285714;FALSE;-1.5;-3;7.5;5;5;1.66666666666667;0;"A";"A";"A";1;1;1;1
1;33;"B";5.9560799429;"j";"left";"down";-4;6;50;50;"-6";12;50;50;"risky mixed";"risky mixed";"loss";"gain";"loss";"gain";-4;6;-6;12;"[03framing.py, 01choiceLA.py, 01choiceDD.py, 03framing_block2.py, 05numeracy.py, 04dsst.py, 02demographics.py]";25;"w";5;3;2;7;"YA";56;56;1;5;0.714285714285714;FALSE;1;3;5;9;5;3;0;"B";"B";"A";1;1;1;0
1;45;"A";11.5940530995;"f";"left";"up";-8;6;50;50;"(0.5 x 4) - (0.5 x 10)";0;100;0;"risky mixed";"complex safe";"loss";"gain";"loss";"gain";-8;6;-3;0;"[03framing.py, 01choiceLA.py, 01choiceDD.py, 03framing_block2.py, 05numeracy.py, 04dsst.py, 02demographics.py]";25;"w";5;3;2;7;"YA";56;56;1;5;0.714285714285714;FALSE;-1;-3;7;0;7;0;1;"A";"A";"A";1;1;1;1
1;40;"B";5.14164415123;"f";"right";"down";-9;6;50;50;"-2";8;50;50;"risky mixed";"risky mixed";"loss";"gain";"loss";"gain";-9;6;-2;8;"[03framing.py, 01choiceLA.py, 01choiceDD.py, 03framing_block2.py, 05numeracy.py, 04dsst.py, 02demographics.py]";25;"w";5;3;2;7;"YA";56;56;1;5;0.714285714285714;FALSE;-1.5;3;7.5;5;5;1.66666666666667;0;"B";"A";"A";0;1;0;0
1;62;"B";9.06019267596;"f";"right";"up";-6;6;50;50;"(0.5 x 7) - (0.5 x 1)";0;100;0;"risky mixed";"complex safe";"loss";"gain";"gain";"gain";-6;6;3;0;"[03framing.py, 01choiceLA.py, 01choiceDD.py, 03framing_block2.py, 05numeracy.py, 04dsst.py, 02demographics.py]";25;"w";5;3;2;7;"YA";56;56;1;5;0.714285714285714;FALSE;0;3;6;0;Inf;0;1;"B";"A";"A";0;1;0;0
1;15;"B";11.4832513986;"f";"right";"up";-3;6;50;50;"3";0;100;0;"risky mixed";"simple safe";"loss";"gain";"gain";"gain";-3;6;3;0;"[03framing.py, 01choiceLA.py, 01choiceDD.py, 03framing_block2.py, 05numeracy.py, 04dsst.py, 02demographics.py]";25;"w";5;3;2;7;"YA";56;56;1;5;0.714285714285714;FALSE;1.5;3;4.5;0;3;0;1;"B";"A";"A";0;1;0;0
1;55;"A";9.01669568369;"f";"left";"up";-6;6;50;50;"(0.5 x 4) - (0.5 x 4)";0;100;0;"risky mixed";"complex safe";"loss";"gain";"gain";"gain";-6;6;0;0;"[03framing.py, 01choiceLA.py, 01choiceDD.py, 03framing_block2.py, 05numeracy.py, 04dsst.py, 02demographics.py]";25;"w";5;3;2;7;"YA";56;56;1;5;0.714285714285714;FALSE;0;0;6;0;Inf;NA;1;"B";"A";NA;0;0;1;NA
1;39;"B";4.1322990456;"j";"left";"down";-7;6;50;50;"-3";9;50;50;"risky mixed";"risky mixed";"loss";"gain";"loss";"gain";-7;6;-3;9;"[03framing.py, 01choiceLA.py, 01choiceDD.py, 03framing_block2.py, 05numeracy.py, 04dsst.py, 02demographics.py]";25;"w";5;3;2;7;"YA";56;56;1;5;0.714285714285714;FALSE;-0.5;3;6.5;6;13;2;0;"B";"A";"A";0;1;0;0
1;6;"A";4.58721812302;"j";"right";"up";-8;6;50;50;"-3";0;100;0;"risky mixed";"simple safe";"loss";"gain";"loss";"gain";-8;6;-3;0;"[03framing.py, 01choiceLA.py, 01choiceDD.py, 03framing_block2.py, 05numeracy.py, 04dsst.py, 02demographics.py]";25;"w";5;3;2;7;"YA";56;56;1;5;0.714285714285714;FALSE;-1;-3;7;0;7;0;1;"A";"A";"A";1;1;1;1
1;42;"B";9.29160636077;"j";"left";"down";-3;6;50;50;"0";6;50;50;"risky mixed";"risky mixed";"loss";"gain";"gain";"gain";-3;6;0;6;"[03framing.py, 01choiceLA.py, 01choiceDD.py, 03framing_block2.py, 05numeracy.py, 04dsst.py, 02demographics.py]";25;"w";5;3;2;7;"YA";56;56;1;5;0.714285714285714;FALSE;1.5;3;4.5;3;3;1;0;"B";"A";"A";0;1;0;0
1;13;"B";4.75154929827;"j";"left";"up";-8;6;50;50;"0";0;100;0;"risky mixed";"simple safe";"loss";"gain";"gain";"gain";-8;6;0;0;"[03framing.py, 01choiceLA.py, 01choiceDD.py, 03framing_block2.py, 05numeracy.py, 04dsst.py, 02demographics.py]";25;"w";5;3;2;7;"YA";56;56;1;5;0.714285714285714;FALSE;-1;0;7;0;7;NA;1;"B";"A";NA;0;1;0;NA
1;46;"A";10.7932592781;"j";"right";"up";-7;6;50;50;"(0.5 x 3) - (0.5 x 9)";0;100;0;"risky mixed";"complex safe";"loss";"gain";"loss";"gain";-7;6;-3;0;"[03framing.py, 01choiceLA.py, 01choiceDD.py, 03framing_block2.py, 05numeracy.py, 04dsst.py, 02demographics.py]";25;"w";5;3;2;7;"YA";56;56;1;5;0.714285714285714;FALSE;-0.5;-3;6.5;0;13;0;1;"A";"A";"A";1;1;1;1
1;48;"A";6.48936824537;"j";"right";"down";-6;6;50;50;"(0.5 x 1) - (0.5 x 7)";0;100;0;"risky mixed";"complex safe";"loss";"gain";"loss";"gain";-6;6;-3;0;"[03framing.py, 01choiceLA.py, 01choiceDD.py, 03framing_block2.py, 05numeracy.py, 04dsst.py, 02demographics.py]";25;"w";5;3;2;7;"YA";56;56;1;5;0.714285714285714;FALSE;0;-3;6;0;Inf;0;1;"A";"A";"A";1;1;1;1
1;52;"B";8.88124540087;"f";"right";"down";-8;6;50;50;"(0.5 x 7) - (0.5 x 7)";0;100;0;"risky mixed";"complex safe";"loss";"gain";"gain";"gain";-8;6;0;0;"[03framing.py, 01choiceLA.py, 01choiceDD.py, 03framing_block2.py, 05numeracy.py, 04dsst.py, 02demographics.py]";25;"w";5;3;2;7;"YA";56;56;1;5;0.714285714285714;FALSE;-1;0;7;0;7;NA;1;"B";"A";NA;0;1;0;NA
1;51;"A";6.49779324736;"j";"right";"up";-5;6;50;50;"(0.5 x 8) - (0.5 x 8)";0;100;0;"risky mixed";"complex safe";"loss";"gain";"gain";"gain";-5;6;0;0;"[03framing.py, 01choiceLA.py, 01choiceDD.py, 03framing_block2.py, 05numeracy.py, 04dsst.py, 02demographics.py]";25;"w";5;3;2;7;"YA";56;56;1;5;0.714285714285714;FALSE;0.5;0;5.5;0;11;NA;1;"A";"A";NA;1;1;1;NA
1;17;"B";5.91443091548;"f";"right";"up";-5;6;50;50;"3";0;100;0;"risky mixed";"simple safe";"loss";"gain";"gain";"gain";-5;6;3;0;"[03framing.py, 01choiceLA.py, 01choiceDD.py, 03framing_block2.py, 05numeracy.py, 04dsst.py, 02demographics.py]";25;"w";5;3;2;7;"YA";56;56;1;5;0.714285714285714;FALSE;0.5;3;5.5;0;11;0;1;"B";"A";"A";0;1;0;0
1;49;"A";6.01701485243;"j";"right";"up";-3;6;50;50;"(0.5 x 0) - (0.5 x 6)";0;100;0;"risky mixed";"complex safe";"loss";"gain";"loss";"gain";-3;6;-3;0;"[03framing.py, 01choiceLA.py, 01choiceDD.py, 03framing_block2.py, 05numeracy.py, 04dsst.py, 02demographics.py]";25;"w";5;3;2;7;"YA";56;56;1;5;0.714285714285714;FALSE;1.5;-3;4.5;0;3;0;1;"A";"A";"A";1;1;1;1
1;22;"A";4.37433090928;"j";"right";"down";-4;6;50;50;"-12";6;50;50;"risky mixed";"risky mixed";"loss";"gain";"loss";"gain";-4;6;-12;6;"[03framing.py, 01choiceLA.py, 01choiceDD.py, 03framing_block2.py, 05numeracy.py, 04dsst.py, 02demographics.py]";25;"w";5;3;2;7;"YA";56;56;1;5;0.714285714285714;FALSE;1;-3;5;9;5;3;0;"A";"B";"A";0;1;0;1
1;16;"B";5.4093937567;"f";"right";"up";-4;6;50;50;"3";0;100;0;"risky mixed";"simple safe";"loss";"gain";"gain";"gain";-4;6;3;0;"[03framing.py, 01choiceLA.py, 01choiceDD.py, 03framing_block2.py, 05numeracy.py, 04dsst.py, 02demographics.py]";25;"w";5;3;2;7;"YA";56;56;1;5;0.714285714285714;FALSE;1;3;5;0;5;0;1;"B";"A";"A";0;1;0;0
1;56;"A";7.7429464262;"f";"left";"down";-3;6;50;50;"(0.5 x 3) - (0.5 x 3)";0;100;0;"risky mixed";"complex safe";"loss";"gain";"gain";"gain";-3;6;0;0;"[03framing.py, 01choiceLA.py, 01choiceDD.py, 03framing_block2.py, 05numeracy.py, 04dsst.py, 02demographics.py]";25;"w";5;3;2;7;"YA";56;56;1;5;0.714285714285714;FALSE;1.5;0;4.5;0;3;NA;1;"A";"A";NA;1;1;1;NA
1;9;"A";5.10920558013;"j";"right";"up";-4;6;50;50;"0";0;100;0;"risky mixed";"simple safe";"loss";"gain";"gain";"gain";-4;6;0;0;"[03framing.py, 01choiceLA.py, 01choiceDD.py, 03framing_block2.py, 05numeracy.py, 04dsst.py, 02demographics.py]";25;"w";5;3;2;7;"YA";56;56;1;5;0.714285714285714;FALSE;1;0;5;0;5;NA;1;"A";"A";NA;1;1;1;NA
1;50;"A";8.77902219109;"f";"left";"up";-4;6;50;50;"(0.5 x 9) - (0.5 x 9)";0;100;0;"risky mixed";"complex safe";"loss";"gain";"gain";"gain";-4;6;0;0;"[03framing.py, 01choiceLA.py, 01choiceDD.py, 03framing_block2.py, 05numeracy.py, 04dsst.py, 02demographics.py]";25;"w";5;3;2;7;"YA";56;56;1;5;0.714285714285714;FALSE;1;0;5;0;5;NA;1;"A";"A";NA;1;1;1;NA
1;23;"A";7.57507059392;"f";"left";"down";-5;6;50;50;"-11";5;50;50;"risky mixed";"risky mixed";"loss";"gain";"loss";"gain";-5;6;-11;5;"[03framing.py, 01choiceLA.py, 01choiceDD.py, 03framing_block2.py, 05numeracy.py, 04dsst.py, 02demographics.py]";25;"w";5;3;2;7;"YA";56;56;1;5;0.714285714285714;FALSE;0.5;-3;5.5;8;11;2.66666666666667;0;"A";"B";"A";0;1;0;1
1;2;"A";4.70604697322;"f";"left";"up";-4;6;50;50;"-3";0;100;0;"risky mixed";"simple safe";"loss";"gain";"loss";"gain";-4;6;-3;0;"[03framing.py, 01choiceLA.py, 01choiceDD.py, 03framing_block2.py, 05numeracy.py, 04dsst.py, 02demographics.py]";25;"w";5;3;2;7;"YA";56;56;1;5;0.714285714285714;FALSE;1;-3;5;0;5;0;1;"A";"A";"A";1;1;1;1
1;12;"B";3.33946061591;"f";"right";"down";-7;6;50;50;"0";0;100;0;"risky mixed";"simple safe";"loss";"gain";"gain";"gain";-7;6;0;0;"[03framing.py, 01choiceLA.py, 01choiceDD.py, 03framing_block2.py, 05numeracy.py, 04dsst.py, 02demographics.py]";25;"w";5;3;2;7;"YA";56;56;1;5;0.714285714285714;FALSE;-0.5;0;6.5;0;13;NA;1;"B";"A";NA;0;1;0;NA
1;53;"B";4.29316147722;"f";"right";"up";-7;6;50;50;"(0.5 x 6) - (0.5 x 6)";0;100;0;"risky mixed";"complex safe";"loss";"gain";"gain";"gain";-7;6;0;0;"[03framing.py, 01choiceLA.py, 01choiceDD.py, 03framing_block2.py, 05numeracy.py, 04dsst.py, 02demographics.py]";25;"w";5;3;2;7;"YA";56;56;1;5;0.714285714285714;FALSE;-0.5;0;6.5;0;13;NA;1;"B";"A";NA;0;1;0;NA
1;57;"B";11.8146308392;"j";"left";"up";-4;6;50;50;"(0.5 x 12) - (0.5 x 6)";0;100;0;"risky mixed";"complex safe";"loss";"gain";"gain";"gain";-4;6;3;0;"[03framing.py, 01choiceLA.py, 01choiceDD.py, 03framing_block2.py, 05numeracy.py, 04dsst.py, 02demographics.py]";25;"w";5;3;2;7;"YA";56;56;1;5;0.714285714285714;FALSE;1;3;5;0;5;0;1;"B";"A";"A";0;1;0;0
1;10;"A";2.51221346848;"j";"right";"down";-5;6;50;50;"0";0;100;0;"risky mixed";"simple safe";"loss";"gain";"gain";"gain";-5;6;0;0;"[03framing.py, 01choiceLA.py, 01choiceDD.py, 03framing_block2.py, 05numeracy.py, 04dsst.py, 02demographics.py]";25;"w";5;3;2;7;"YA";56;56;1;5;0.714285714285714;FALSE;0.5;0;5.5;0;11;NA;1;"A";"A";NA;1;1;1;NA
1;7;"B";8.30026436703;"f";"right";"up";-9;6;50;50;"-3";0;100;0;"risky mixed";"simple safe";"loss";"gain";"loss";"gain";-9;6;-3;0;"[03framing.py, 01choiceLA.py, 01choiceDD.py, 03framing_block2.py, 05numeracy.py, 04dsst.py, 02demographics.py]";25;"w";5;3;2;7;"YA";56;56;1;5;0.714285714285714;FALSE;-1.5;-3;7.5;0;5;0;1;"A";"A";"A";1;0;0;0
1;21;"B";6.97470698536;"j";"left";"down";-9;6;50;50;"3";0;100;0;"risky mixed";"simple safe";"loss";"gain";"gain";"gain";-9;6;3;0;"[03framing.py, 01choiceLA.py, 01choiceDD.py, 03framing_block2.py, 05numeracy.py, 04dsst.py, 02demographics.py]";25;"w";5;3;2;7;"YA";56;56;1;5;0.714285714285714;FALSE;-1.5;3;7.5;0;5;0;1;"B";"A";"A";0;1;0;0
1;29;"B";7.3202930368;"f";"right";"down";-8;6;50;50;"-7";7;50;50;"risky mixed";"risky mixed";"loss";"gain";"loss";"gain";-8;6;-7;7;"[03framing.py, 01choiceLA.py, 01choiceDD.py, 03framing_block2.py, 05numeracy.py, 04dsst.py, 02demographics.py]";25;"w";5;3;2;7;"YA";56;56;1;5;0.714285714285714;FALSE;-1;0;7;7;7;Inf;0;"B";"B";"B";1;1;1;1
1;35;"B";6.46809559325;"j";"left";"down";-5;6;50;50;"-5";11;50;50;"risky mixed";"risky mixed";"loss";"gain";"loss";"gain";-5;6;-5;11;"[03framing.py, 01choiceLA.py, 01choiceDD.py, 03framing_block2.py, 05numeracy.py, 04dsst.py, 02demographics.py]";25;"w";5;3;2;7;"YA";56;56;1;5;0.714285714285714;FALSE;0.5;3;5.5;8;11;2.66666666666667;0;"B";"B";"A";1;1;1;0
1;63;"A";12.8330982973;"f";"left";"down";-3;6;50;50;"(0.5 x 6) - (0.5 x 0)";0;100;0;"risky mixed";"complex safe";"loss";"gain";"gain";"gain";-3;6;3;0;"[03framing.py, 01choiceLA.py, 01choiceDD.py, 03framing_block2.py, 05numeracy.py, 04dsst.py, 02demographics.py]";25;"w";5;3;2;7;"YA";56;56;1;5;0.714285714285714;FALSE;1.5;3;4.5;0;3;0;1;"B";"A";"A";0;0;1;1
1;37;"B";13.0188888606;"j";"left";"down";-8;6;50;50;"-4";10;50;50;"risky mixed";"risky mixed";"loss";"gain";"loss";"gain";-8;6;-4;10;"[03framing.py, 01choiceLA.py, 01choiceDD.py, 03framing_block2.py, 05numeracy.py, 04dsst.py, 02demographics.py]";25;"w";5;3;2;7;"YA";56;56;1;5;0.714285714285714;FALSE;-1;3;7;7;7;2.33333333333333;0;"B";"B";"A";1;1;1;0
1;3;"A";4.97039100387;"j";"right";"up";-5;6;50;50;"-3";0;100;0;"risky mixed";"simple safe";"loss";"gain";"loss";"gain";-5;6;-3;0;"[03framing.py, 01choiceLA.py, 01choiceDD.py, 03framing_block2.py, 05numeracy.py, 04dsst.py, 02demographics.py]";25;"w";5;3;2;7;"YA";56;56;1;5;0.714285714285714;FALSE;0.5;-3;5.5;0;11;0;1;"A";"A";"A";1;1;1;1
1;58;"B";12.187174459;"f";"right";"up";-5;6;50;50;"(0.5 x 11) - (0.5 x 5)";0;100;0;"risky mixed";"complex safe";"loss";"gain";"gain";"gain";-5;6;3;0;"[03framing.py, 01choiceLA.py, 01choiceDD.py, 03framing_block2.py, 05numeracy.py, 04dsst.py, 02demographics.py]";25;"w";5;3;2;7;"YA";56;56;1;5;0.714285714285714;FALSE;0.5;3;5.5;0;11;0;1;"B";"A";"A";0;1;0;0
1;44;"A";10.0289551435;"j";"right";"up";-5;6;50;50;"(0.5 x 5) - (0.5 x 11)";0;100;0;"risky mixed";"complex safe";"loss";"gain";"loss";"gain";-5;6;-3;0;"[03framing.py, 01choiceLA.py, 01choiceDD.py, 03framing_block2.py, 05numeracy.py, 04dsst.py, 02demographics.py]";25;"w";5;3;2;7;"YA";56;56;1;5;0.714285714285714;FALSE;0.5;-3;5.5;0;11;0;1;"A";"A";"A";1;1;1;1
1;26;"A";3.89056113855;"j";"right";"up";-7;6;50;50;"-9";3;50;50;"risky mixed";"risky mixed";"loss";"gain";"loss";"gain";-7;6;-9;3;"[03framing.py, 01choiceLA.py, 01choiceDD.py, 03framing_block2.py, 05numeracy.py, 04dsst.py, 02demographics.py]";25;"w";5;3;2;7;"YA";56;56;1;5;0.714285714285714;FALSE;-0.5;-3;6.5;6;13;2;0;"A";"A";"A";1;1;1;1
1;5;"A";6.54638530317;"j";"right";"down";-7;6;50;50;"-3";0;100;0;"risky mixed";"simple safe";"loss";"gain";"loss";"gain";-7;6;-3;0;"[03framing.py, 01choiceLA.py, 01choiceDD.py, 03framing_block2.py, 05numeracy.py, 04dsst.py, 02demographics.py]";25;"w";5;3;2;7;"YA";56;56;1;5;0.714285714285714;FALSE;-0.5;-3;6.5;0;13;0;1;"A";"A";"A";1;1;1;1
1;8;"A";5.01726725063;"f";"left";"down";-3;6;50;50;"0";0;100;0;"risky mixed";"simple safe";"loss";"gain";"gain";"gain";-3;6;0;0;"[03framing.py, 01choiceLA.py, 01choiceDD.py, 03framing_block2.py, 05numeracy.py, 04dsst.py, 02demographics.py]";25;"w";5;3;2;7;"YA";56;56;1;5;0.714285714285714;FALSE;1.5;0;4.5;0;3;NA;1;"A";"A";NA;1;1;1;NA
1;36;"B";7.87778025897;"j";"left";"down";-6;6;50;50;"-4";4;50;50;"risky mixed";"risky mixed";"loss";"gain";"loss";"gain";-6;6;-4;4;"[03framing.py, 01choiceLA.py, 01choiceDD.py, 03framing_block2.py, 05numeracy.py, 04dsst.py, 02demographics.py]";25;"w";5;3;2;7;"YA";56;56;1;5;0.714285714285714;FALSE;0;0;6;4;Inf;Inf;0;"B";"A";"B";0;1;0;1
1;43;"A";7.26908141463;"f";"left";"up";-4;6;50;50;"(0.5 x 6) - (0.5 x 12)";0;100;0;"risky mixed";"complex safe";"loss";"gain";"loss";"gain";-4;6;-3;0;"[03framing.py, 01choiceLA.py, 01choiceDD.py, 03framing_block2.py, 05numeracy.py, 04dsst.py, 02demographics.py]";25;"w";5;3;2;7;"YA";56;56;1;5;0.714285714285714;FALSE;1;-3;5;0;5;0;1;"A";"A";"A";1;1;1;1
1;59;"B";12.5911265548;"j";"left";"up";-8;6;50;50;"(0.5 x 10) - (0.5 x 4)";0;100;0;"risky mixed";"complex safe";"loss";"gain";"gain";"gain";-8;6;3;0;"[03framing.py, 01choiceLA.py, 01choiceDD.py, 03framing_block2.py, 05numeracy.py, 04dsst.py, 02demographics.py]";25;"w";5;3;2;7;"YA";56;56;1;5;0.714285714285714;FALSE;-1;3;7;0;7;0;1;"B";"A";"A";0;1;0;0
10;30;"A";8.89172581575;"f";"left";"down";-6;6;50;50;"-7";1;50;50;"risky mixed";"risky mixed";"loss";"gain";"loss";"gain";-6;6;-7;1;"[03framing.py, 01choiceDD.py, 01choiceLA.py, 03framing_block2.py, 04dsst.py, 05numeracy.py, 02demographics.py]";24;"w";3;7;6;6;"YA";74;67;0.905405405405405;3;0.428571428571429;FALSE;0;-3;6;4;Inf;1.33333333333333;0;"A";"A";"A";1;1;1;1
10;44;"A";16.8766944378;"f";"left";"down";-5;6;50;50;"(0.5 x 5) - (0.5 x 11)";0;100;0;"risky mixed";"complex safe";"loss";"gain";"loss";"gain";-5;6;-3;0;"[03framing.py, 01choiceDD.py, 01choiceLA.py, 03framing_block2.py, 04dsst.py, 05numeracy.py, 02demographics.py]";24;"w";3;7;6;6;"YA";74;67;0.905405405405405;3;0.428571428571429;FALSE;0.5;-3;5.5;0;11;0;1;"A";"A";"A";1;1;1;1
10;38;"A";6.57412693527;"j";"right";"up";-3;6;50;50;"-3";3;50;50;"risky mixed";"risky mixed";"loss";"gain";"loss";"gain";-3;6;-3;3;"[03framing.py, 01choiceDD.py, 01choiceLA.py, 03framing_block2.py, 04dsst.py, 05numeracy.py, 02demographics.py]";24;"w";3;7;6;6;"YA";74;67;0.905405405405405;3;0.428571428571429;FALSE;1.5;0;4.5;3;3;Inf;0;"A";"A";"B";1;1;1;0
10;54;"B";17.2917784009;"j";"left";"down";-9;6;50;50;"(0.5 x 5) - (0.5 x 5)";0;100;0;"risky mixed";"complex safe";"loss";"gain";"gain";"gain";-9;6;0;0;"[03framing.py, 01choiceDD.py, 01choiceLA.py, 03framing_block2.py, 04dsst.py, 05numeracy.py, 02demographics.py]";24;"w";3;7;6;6;"YA";74;67;0.905405405405405;3;0.428571428571429;FALSE;-1.5;0;7.5;0;5;NA;1;"B";"A";NA;0;1;0;NA
10;14;"B";3.66060958341;"f";"right";"up";-9;6;50;50;"0";0;100;0;"risky mixed";"simple safe";"loss";"gain";"gain";"gain";-9;6;0;0;"[03framing.py, 01choiceDD.py, 01choiceLA.py, 03framing_block2.py, 04dsst.py, 05numeracy.py, 02demographics.py]";24;"w";3;7;6;6;"YA";74;67;0.905405405405405;3;0.428571428571429;FALSE;-1.5;0;7.5;0;5;NA;1;"B";"A";NA;0;1;0;NA
10;11;"A";5.37499483984;"f";"left";"down";-6;6;50;50;"0";0;100;0;"risky mixed";"simple safe";"loss";"gain";"gain";"gain";-6;6;0;0;"[03framing.py, 01choiceDD.py, 01choiceLA.py, 03framing_block2.py, 04dsst.py, 05numeracy.py, 02demographics.py]";24;"w";3;7;6;6;"YA";74;67;0.905405405405405;3;0.428571428571429;FALSE;0;0;6;0;Inf;NA;1;"B";"A";NA;0;0;1;NA
10;46;"A";10.2688309886;"f";"left";"down";-7;6;50;50;"(0.5 x 3) - (0.5 x 9)";0;100;0;"risky mixed";"complex safe";"loss";"gain";"loss";"gain";-7;6;-3;0;"[03framing.py, 01choiceDD.py, 01choiceLA.py, 03framing_block2.py, 04dsst.py, 05numeracy.py, 02demographics.py]";24;"w";3;7;6;6;"YA";74;67;0.905405405405405;3;0.428571428571429;FALSE;-0.5;-3;6.5;0;13;0;1;"A";"A";"A";1;1;1;1
10;41;"B";5.01451023624;"f";"right";"up";-6;6;50;50;"-1";7;50;50;"risky mixed";"risky mixed";"loss";"gain";"loss";"gain";-6;6;-1;7;"[03framing.py, 01choiceDD.py, 01choiceLA.py, 03framing_block2.py, 04dsst.py, 05numeracy.py, 02demographics.py]";24;"w";3;7;6;6;"YA";74;67;0.905405405405405;3;0.428571428571429;FALSE;0;3;6;4;Inf;1.33333333333333;0;"B";"A";"A";0;1;0;0
10;34;"B";13.5383776119;"f";"right";"up";-9;6;50;50;"-5";5;50;50;"risky mixed";"risky mixed";"loss";"gain";"loss";"gain";-9;6;-5;5;"[03framing.py, 01choiceDD.py, 01choiceLA.py, 03framing_block2.py, 04dsst.py, 05numeracy.py, 02demographics.py]";24;"w";3;7;6;6;"YA";74;67;0.905405405405405;3;0.428571428571429;FALSE;-1.5;0;7.5;5;5;Inf;0;"B";"A";"B";0;1;0;1
10;59;"B";9.51316610068;"f";"right";"down";-8;6;50;50;"(0.5 x 10) - (0.5 x 4)";0;100;0;"risky mixed";"complex safe";"loss";"gain";"gain";"gain";-8;6;3;0;"[03framing.py, 01choiceDD.py, 01choiceLA.py, 03framing_block2.py, 04dsst.py, 05numeracy.py, 02demographics.py]";24;"w";3;7;6;6;"YA";74;67;0.905405405405405;3;0.428571428571429;FALSE;-1;3;7;0;7;0;1;"B";"A";"A";0;1;0;0
10;13;"B";5.26549717777;"f";"right";"up";-8;6;50;50;"0";0;100;0;"risky mixed";"simple safe";"loss";"gain";"gain";"gain";-8;6;0;0;"[03framing.py, 01choiceDD.py, 01choiceLA.py, 03framing_block2.py, 04dsst.py, 05numeracy.py, 02demographics.py]";24;"w";3;7;6;6;"YA";74;67;0.905405405405405;3;0.428571428571429;FALSE;-1;0;7;0;7;NA;1;"B";"A";NA;0;1;0;NA
10;21;"B";5.47529536212;"j";"left";"up";-9;6;50;50;"3";0;100;0;"risky mixed";"simple safe";"loss";"gain";"gain";"gain";-9;6;3;0;"[03framing.py, 01choiceDD.py, 01choiceLA.py, 03framing_block2.py, 04dsst.py, 05numeracy.py, 02demographics.py]";24;"w";3;7;6;6;"YA";74;67;0.905405405405405;3;0.428571428571429;FALSE;-1.5;3;7.5;0;5;0;1;"B";"A";"A";0;1;0;0
10;56;"A";6.86100810028;"j";"right";"up";-3;6;50;50;"(0.5 x 3) - (0.5 x 3)";0;100;0;"risky mixed";"complex safe";"loss";"gain";"gain";"gain";-3;6;0;0;"[03framing.py, 01choiceDD.py, 01choiceLA.py, 03framing_block2.py, 04dsst.py, 05numeracy.py, 02demographics.py]";24;"w";3;7;6;6;"YA";74;67;0.905405405405405;3;0.428571428571429;FALSE;1.5;0;4.5;0;3;NA;1;"A";"A";NA;1;1;1;NA
10;55;"A";5.35945506476;"j";"right";"down";-6;6;50;50;"(0.5 x 4) - (0.5 x 4)";0;100;0;"risky mixed";"complex safe";"loss";"gain";"gain";"gain";-6;6;0;0;"[03framing.py, 01choiceDD.py, 01choiceLA.py, 03framing_block2.py, 04dsst.py, 05numeracy.py, 02demographics.py]";24;"w";3;7;6;6;"YA";74;67;0.905405405405405;3;0.428571428571429;FALSE;0;0;6;0;Inf;NA;1;"B";"A";NA;0;0;1;NA
10;23;"A";5.69387344042;"j";"right";"up";-5;6;50;50;"-11";5;50;50;"risky mixed";"risky mixed";"loss";"gain";"loss";"gain";-5;6;-11;5;"[03framing.py, 01choiceDD.py, 01choiceLA.py, 03framing_block2.py, 04dsst.py, 05numeracy.py, 02demographics.py]";24;"w";3;7;6;6;"YA";74;67;0.905405405405405;3;0.428571428571429;FALSE;0.5;-3;5.5;8;11;2.66666666666667;0;"A";"B";"A";0;1;0;1
10;3;"A";3.16702051292;"j";"right";"down";-5;6;50;50;"-3";0;100;0;"risky mixed";"simple safe";"loss";"gain";"loss";"gain";-5;6;-3;0;"[03framing.py, 01choiceDD.py, 01choiceLA.py, 03framing_block2.py, 04dsst.py, 05numeracy.py, 02demographics.py]";24;"w";3;7;6;6;"YA";74;67;0.905405405405405;3;0.428571428571429;FALSE;0.5;-3;5.5;0;11;0;1;"A";"A";"A";1;1;1;1
10;4;"A";2.46887625946;"j";"right";"down";-6;6;50;50;"-3";0;100;0;"risky mixed";"simple safe";"loss";"gain";"loss";"gain";-6;6;-3;0;"[03framing.py, 01choiceDD.py, 01choiceLA.py, 03framing_block2.py, 04dsst.py, 05numeracy.py, 02demographics.py]";24;"w";3;7;6;6;"YA";74;67;0.905405405405405;3;0.428571428571429;FALSE;0;-3;6;0;Inf;0;1;"A";"A";"A";1;1;1;1
10;43;"A";7.57464419819;"j";"right";"down";-4;6;50;50;"(0.5 x 6) - (0.5 x 12)";0;100;0;"risky mixed";"complex safe";"loss";"gain";"loss";"gain";-4;6;-3;0;"[03framing.py, 01choiceDD.py, 01choiceLA.py, 03framing_block2.py, 04dsst.py, 05numeracy.py, 02demographics.py]";24;"w";3;7;6;6;"YA";74;67;0.905405405405405;3;0.428571428571429;FALSE;1;-3;5;0;5;0;1;"A";"A";"A";1;1;1;1
10;39;"B";4.42774014285;"f";"right";"down";-7;6;50;50;"-3";9;50;50;"risky mixed";"risky mixed";"loss";"gain";"loss";"gain";-7;6;-3;9;"[03framing.py, 01choiceDD.py, 01choiceLA.py, 03framing_block2.py, 04dsst.py, 05numeracy.py, 02demographics.py]";24;"w";3;7;6;6;"YA";74;67;0.905405405405405;3;0.428571428571429;FALSE;-0.5;3;6.5;6;13;2;0;"B";"A";"A";0;1;0;0
10;61;"B";10.5436064834;"f";"right";"down";-9;6;50;50;"(0.5 x 8) - (0.5 x 2)";0;100;0;"risky mixed";"complex safe";"loss";"gain";"gain";"gain";-9;6;3;0;"[03framing.py, 01choiceDD.py, 01choiceLA.py, 03framing_block2.py, 04dsst.py, 05numeracy.py, 02demographics.py]";24;"w";3;7;6;6;"YA";74;67;0.905405405405405;3;0.428571428571429;FALSE;-1.5;3;7.5;0;5;0;1;"B";"A";"A";0;1;0;0
10;19;"B";2.27120452443;"f";"right";"up";-7;6;50;50;"3";0;100;0;"risky mixed";"simple safe";"loss";"gain";"gain";"gain";-7;6;3;0;"[03framing.py, 01choiceDD.py, 01choiceLA.py, 03framing_block2.py, 04dsst.py, 05numeracy.py, 02demographics.py]";24;"w";3;7;6;6;"YA";74;67;0.905405405405405;3;0.428571428571429;FALSE;-0.5;3;6.5;0;13;0;1;"B";"A";"A";0;1;0;0
10;60;"B";9.01694832608;"j";"left";"down";-7;6;50;50;"(0.5 x 9) - (0.5 x 3)";0;100;0;"risky mixed";"complex safe";"loss";"gain";"gain";"gain";-7;6;3;0;"[03framing.py, 01choiceDD.py, 01choiceLA.py, 03framing_block2.py, 04dsst.py, 05numeracy.py, 02demographics.py]";24;"w";3;7;6;6;"YA";74;67;0.905405405405405;3;0.428571428571429;FALSE;-0.5;3;6.5;0;13;0;1;"B";"A";"A";0;1;0;0
10;57;"B";7.15053791742;"f";"right";"up";-4;6;50;50;"(0.5 x 12) - (0.5 x 6)";0;100;0;"risky mixed";"complex safe";"loss";"gain";"gain";"gain";-4;6;3;0;"[03framing.py, 01choiceDD.py, 01choiceLA.py, 03framing_block2.py, 04dsst.py, 05numeracy.py, 02demographics.py]";24;"w";3;7;6;6;"YA";74;67;0.905405405405405;3;0.428571428571429;FALSE;1;3;5;0;5;0;1;"B";"A";"A";0;1;0;0
10;5;"A";1.97366447395;"j";"right";"down";-7;6;50;50;"-3";0;100;0;"risky mixed";"simple safe";"loss";"gain";"loss";"gain";-7;6;-3;0;"[03framing.py, 01choiceDD.py, 01choiceLA.py, 03framing_block2.py, 04dsst.py, 05numeracy.py, 02demographics.py]";24;"w";3;7;6;6;"YA";74;67;0.905405405405405;3;0.428571428571429;FALSE;-0.5;-3;6.5;0;13;0;1;"A";"A";"A";1;1;1;1
10;10;"B";4.05958026621;"j";"left";"up";-5;6;50;50;"0";0;100;0;"risky mixed";"simple safe";"loss";"gain";"gain";"gain";-5;6;0;0;"[03framing.py, 01choiceDD.py, 01choiceLA.py, 03framing_block2.py, 04dsst.py, 05numeracy.py, 02demographics.py]";24;"w";3;7;6;6;"YA";74;67;0.905405405405405;3;0.428571428571429;FALSE;0.5;0;5.5;0;11;NA;1;"A";"A";NA;1;0;0;NA
10;58;"B";5.47000803184;"j";"left";"down";-5;6;50;50;"(0.5 x 11) - (0.5 x 5)";0;100;0;"risky mixed";"complex safe";"loss";"gain";"gain";"gain";-5;6;3;0;"[03framing.py, 01choiceDD.py, 01choiceLA.py, 03framing_block2.py, 04dsst.py, 05numeracy.py, 02demographics.py]";24;"w";3;7;6;6;"YA";74;67;0.905405405405405;3;0.428571428571429;FALSE;0.5;3;5.5;0;11;0;1;"B";"A";"A";0;1;0;0
10;63;"B";10.3118447114;"j";"left";"up";-3;6;50;50;"(0.5 x 6) - (0.5 x 0)";0;100;0;"risky mixed";"complex safe";"loss";"gain";"gain";"gain";-3;6;3;0;"[03framing.py, 01choiceDD.py, 01choiceLA.py, 03framing_block2.py, 04dsst.py, 05numeracy.py, 02demographics.py]";24;"w";3;7;6;6;"YA";74;67;0.905405405405405;3;0.428571428571429;FALSE;1.5;3;4.5;0;3;0;1;"B";"A";"A";0;1;0;0
10;53;"B";7.68007994718;"j";"left";"down";-7;6;50;50;"(0.5 x 6) - (0.5 x 6)";0;100;0;"risky mixed";"complex safe";"loss";"gain";"gain";"gain";-7;6;0;0;"[03framing.py, 01choiceDD.py, 01choiceLA.py, 03framing_block2.py, 04dsst.py, 05numeracy.py, 02demographics.py]";24;"w";3;7;6;6;"YA";74;67;0.905405405405405;3;0.428571428571429;FALSE;-0.5;0;6.5;0;13;NA;1;"B";"A";NA;0;1;0;NA
10;32;"A";6.68916543354;"f";"left";"down";-3;6;50;50;"-6";0;50;50;"risky mixed";"risky mixed";"loss";"gain";"loss";"gain";-3;6;-6;0;"[03framing.py, 01choiceDD.py, 01choiceLA.py, 03framing_block2.py, 04dsst.py, 05numeracy.py, 02demographics.py]";24;"w";3;7;6;6;"YA";74;67;0.905405405405405;3;0.428571428571429;FALSE;1.5;-3;4.5;3;3;1;0;"A";"A";"A";1;1;1;1
10;45;"A";7.3222160131;"f";"left";"down";-8;6;50;50;"(0.5 x 4) - (0.5 x 10)";0;100;0;"risky mixed";"complex safe";"loss";"gain";"loss";"gain";-8;6;-3;0;"[03framing.py, 01choiceDD.py, 01choiceLA.py, 03framing_block2.py, 04dsst.py, 05numeracy.py, 02demographics.py]";24;"w";3;7;6;6;"YA";74;67;0.905405405405405;3;0.428571428571429;FALSE;-1;-3;7;0;7;0;1;"A";"A";"A";1;1;1;1
10;51;"A";4.3619962193;"f";"left";"up";-5;6;50;50;"(0.5 x 8) - (0.5 x 8)";0;100;0;"risky mixed";"complex safe";"loss";"gain";"gain";"gain";-5;6;0;0;"[03framing.py, 01choiceDD.py, 01choiceLA.py, 03framing_block2.py, 04dsst.py, 05numeracy.py, 02demographics.py]";24;"w";3;7;6;6;"YA";74;67;0.905405405405405;3;0.428571428571429;FALSE;0.5;0;5.5;0;11;NA;1;"A";"A";NA;1;1;1;NA
10;8;"A";1.79243848602;"f";"left";"down";-3;6;50;50;"0";0;100;0;"risky mixed";"simple safe";"loss";"gain";"gain";"gain";-3;6;0;0;"[03framing.py, 01choiceDD.py, 01choiceLA.py, 03framing_block2.py, 04dsst.py, 05numeracy.py, 02demographics.py]";24;"w";3;7;6;6;"YA";74;67;0.905405405405405;3;0.428571428571429;FALSE;1.5;0;4.5;0;3;NA;1;"A";"A";NA;1;1;1;NA
10;62;"B";3.85360101712;"j";"left";"down";-6;6;50;50;"(0.5 x 7) - (0.5 x 1)";0;100;0;"risky mixed";"complex safe";"loss";"gain";"gain";"gain";-6;6;3;0;"[03framing.py, 01choiceDD.py, 01choiceLA.py, 03framing_block2.py, 04dsst.py, 05numeracy.py, 02demographics.py]";24;"w";3;7;6;6;"YA";74;67;0.905405405405405;3;0.428571428571429;FALSE;0;3;6;0;Inf;0;1;"B";"A";"A";0;1;0;0
10;35;"B";4.45620844339;"f";"right";"down";-5;6;50;50;"-5";11;50;50;"risky mixed";"risky mixed";"loss";"gain";"loss";"gain";-5;6;-5;11;"[03framing.py, 01choiceDD.py, 01choiceLA.py, 03framing_block2.py, 04dsst.py, 05numeracy.py, 02demographics.py]";24;"w";3;7;6;6;"YA";74;67;0.905405405405405;3;0.428571428571429;FALSE;0.5;3;5.5;8;11;2.66666666666667;0;"B";"B";"A";1;1;1;0
10;24;"A";4.79468623862;"f";"left";"down";-8;6;50;50;"-10";4;50;50;"risky mixed";"risky mixed";"loss";"gain";"loss";"gain";-8;6;-10;4;"[03framing.py, 01choiceDD.py, 01choiceLA.py, 03framing_block2.py, 04dsst.py, 05numeracy.py, 02demographics.py]";24;"w";3;7;6;6;"YA";74;67;0.905405405405405;3;0.428571428571429;FALSE;-1;-3;7;7;7;2.33333333333333;0;"A";"B";"A";0;1;0;1
10;25;"A";10.9431351563;"f";"left";"down";-4;6;50;50;"-9";9;50;50;"risky mixed";"risky mixed";"loss";"gain";"loss";"gain";-4;6;-9;9;"[03framing.py, 01choiceDD.py, 01choiceLA.py, 03framing_block2.py, 04dsst.py, 05numeracy.py, 02demographics.py]";24;"w";3;7;6;6;"YA";74;67;0.905405405405405;3;0.428571428571429;FALSE;1;0;5;9;5;Inf;0;"A";"B";"B";0;1;0;0
10;9;"A";2.89342444401;"f";"left";"down";-4;6;50;50;"0";0;100;0;"risky mixed";"simple safe";"loss";"gain";"gain";"gain";-4;6;0;0;"[03framing.py, 01choiceDD.py, 01choiceLA.py, 03framing_block2.py, 04dsst.py, 05numeracy.py, 02demographics.py]";24;"w";3;7;6;6;"YA";74;67;0.905405405405405;3;0.428571428571429;FALSE;1;0;5;0;5;NA;1;"A";"A";NA;1;1;1;NA
10;27;"A";14.8299734331;"f";"left";"up";-5;6;50;50;"-8";8;50;50;"risky mixed";"risky mixed";"loss";"gain";"loss";"gain";-5;6;-8;8;"[03framing.py, 01choiceDD.py, 01choiceLA.py, 03framing_block2.py, 04dsst.py, 05numeracy.py, 02demographics.py]";24;"w";3;7;6;6;"YA";74;67;0.905405405405405;3;0.428571428571429;FALSE;0.5;0;5.5;8;11;Inf;0;"A";"B";"B";0;1;0;0
10;42;"B";3.64944701074;"j";"left";"down";-3;6;50;50;"0";6;50;50;"risky mixed";"risky mixed";"loss";"gain";"gain";"gain";-3;6;0;6;"[03framing.py, 01choiceDD.py, 01choiceLA.py, 03framing_block2.py, 04dsst.py, 05numeracy.py, 02demographics.py]";24;"w";3;7;6;6;"YA";74;67;0.905405405405405;3;0.428571428571429;FALSE;1.5;3;4.5;3;3;1;0;"B";"A";"A";0;1;0;0
10;1;"A";4.45187058287;"j";"right";"down";-3;6;50;50;"-3";0;100;0;"risky mixed";"simple safe";"loss";"gain";"loss";"gain";-3;6;-3;0;"[03framing.py, 01choiceDD.py, 01choiceLA.py, 03framing_block2.py, 04dsst.py, 05numeracy.py, 02demographics.py]";24;"w";3;7;6;6;"YA";74;67;0.905405405405405;3;0.428571428571429;FALSE;1.5;-3;4.5;0;3;0;1;"A";"A";"A";1;1;1;1
10;12;"B";4.6624730598;"f";"right";"up";-7;6;50;50;"0";0;100;0;"risky mixed";"simple safe";"loss";"gain";"gain";"gain";-7;6;0;0;"[03framing.py, 01choiceDD.py, 01choiceLA.py, 03framing_block2.py, 04dsst.py, 05numeracy.py, 02demographics.py]";24;"w";3;7;6;6;"YA";74;67;0.905405405405405;3;0.428571428571429;FALSE;-0.5;0;6.5;0;13;NA;1;"B";"A";NA;0;1;0;NA
10;31;"B";6.112762486;"f";"right";"down";-7;6;50;50;"-6";6;50;50;"risky mixed";"risky mixed";"loss";"gain";"loss";"gain";-7;6;-6;6;"[03framing.py, 01choiceDD.py, 01choiceLA.py, 03framing_block2.py, 04dsst.py, 05numeracy.py, 02demographics.py]";24;"w";3;7;6;6;"YA";74;67;0.905405405405405;3;0.428571428571429;FALSE;-0.5;0;6.5;6;13;Inf;0;"B";"A";"B";0;1;0;1
10;49;"A";9.08930307479;"j";"right";"down";-3;6;50;50;"(0.5 x 0) - (0.5 x 6)";0;100;0;"risky mixed";"complex safe";"loss";"gain";"loss";"gain";-3;6;-3;0;"[03framing.py, 01choiceDD.py, 01choiceLA.py, 03framing_block2.py, 04dsst.py, 05numeracy.py, 02demographics.py]";24;"w";3;7;6;6;"YA";74;67;0.905405405405405;3;0.428571428571429;FALSE;1.5;-3;4.5;0;3;0;1;"A";"A";"A";1;1;1;1
10;47;"A";5.03490125598;"j";"right";"down";-9;6;50;50;"(0.5 x 2) - (0.5 x 8)";0;100;0;"risky mixed";"complex safe";"loss";"gain";"loss";"gain";-9;6;-3;0;"[03framing.py, 01choiceDD.py, 01choiceLA.py, 03framing_block2.py, 04dsst.py, 05numeracy.py, 02demographics.py]";24;"w";3;7;6;6;"YA";74;67;0.905405405405405;3;0.428571428571429;FALSE;-1.5;-3;7.5;0;5;0;1;"A";"A";"A";1;1;1;1
10;48;"A";9.66339260754;"f";"left";"down";-6;6;50;50;"(0.5 x 1) - (0.5 x 7)";0;100;0;"risky mixed";"complex safe";"loss";"gain";"loss";"gain";-6;6;-3;0;"[03framing.py, 01choiceDD.py, 01choiceLA.py, 03framing_block2.py, 04dsst.py, 05numeracy.py, 02demographics.py]";24;"w";3;7;6;6;"YA";74;67;0.905405405405405;3;0.428571428571429;FALSE;0;-3;6;0;Inf;0;1;"A";"A";"A";1;1;1;1
10;28;"A";3.69772451413;"f";"left";"down";-9;6;50;50;"-8";2;50;50;"risky mixed";"risky mixed";"loss";"gain";"loss";"gain";-9;6;-8;2;"[03framing.py, 01choiceDD.py, 01choiceLA.py, 03framing_block2.py, 04dsst.py, 05numeracy.py, 02demographics.py]";24;"w";3;7;6;6;"YA";74;67;0.905405405405405;3;0.428571428571429;FALSE;-1.5;-3;7.5;5;5;1.66666666666667;0;"A";"A";"A";1;1;1;1
10;29;"B";4.49817212526;"f";"right";"down";-8;6;50;50;"-7";7;50;50;"risky mixed";"risky mixed";"loss";"gain";"loss";"gain";-8;6;-7;7;"[03framing.py, 01choiceDD.py, 01choiceLA.py, 03framing_block2.py, 04dsst.py, 05numeracy.py, 02demographics.py]";24;"w";3;7;6;6;"YA";74;67;0.905405405405405;3;0.428571428571429;FALSE;-1;0;7;7;7;Inf;0;"B";"B";"B";1;1;1;1
10;40;"B";4.76991081302;"f";"right";"down";-9;6;50;50;"-2";8;50;50;"risky mixed";"risky mixed";"loss";"gain";"loss";"gain";-9;6;-2;8;"[03framing.py, 01choiceDD.py, 01choiceLA.py, 03framing_block2.py, 04dsst.py, 05numeracy.py, 02demographics.py]";24;"w";3;7;6;6;"YA";74;67;0.905405405405405;3;0.428571428571429;FALSE;-1.5;3;7.5;5;5;1.66666666666667;0;"B";"A";"A";0;1;0;0
10;22;"A";3.65576886686;"j";"right";"down";-4;6;50;50;"-12";6;50;50;"risky mixed";"risky mixed";"loss";"gain";"loss";"gain";-4;6;-12;6;"[03framing.py, 01choiceDD.py, 01choiceLA.py, 03framing_block2.py, 04dsst.py, 05numeracy.py, 02demographics.py]";24;"w";3;7;6;6;"YA";74;67;0.905405405405405;3;0.428571428571429;FALSE;1;-3;5;9;5;3;0;"A";"B";"A";0;1;0;1
10;15;"B";4.23430015601;"j";"left";"up";-3;6;50;50;"3";0;100;0;"risky mixed";"simple safe";"loss";"gain";"gain";"gain";-3;6;3;0;"[03framing.py, 01choiceDD.py, 01choiceLA.py, 03framing_block2.py, 04dsst.py, 05numeracy.py, 02demographics.py]";24;"w";3;7;6;6;"YA";74;67;0.905405405405405;3;0.428571428571429;FALSE;1.5;3;4.5;0;3;0;1;"B";"A";"A";0;1;0;0
10;52;"B";8.54943407225;"j";"left";"up";-8;6;50;50;"(0.5 x 7) - (0.5 x 7)";0;100;0;"risky mixed";"complex safe";"loss";"gain";"gain";"gain";-8;6;0;0;"[03framing.py, 01choiceDD.py, 01choiceLA.py, 03framing_block2.py, 04dsst.py, 05numeracy.py, 02demographics.py]";24;"w";3;7;6;6;"YA";74;67;0.905405405405405;3;0.428571428571429;FALSE;-1;0;7;0;7;NA;1;"B";"A";NA;0;1;0;NA
10;37;"B";5.68319626928;"j";"left";"down";-8;6;50;50;"-4";10;50;50;"risky mixed";"risky mixed";"loss";"gain";"loss";"gain";-8;6;-4;10;"[03framing.py, 01choiceDD.py, 01choiceLA.py, 03framing_block2.py, 04dsst.py, 05numeracy.py, 02demographics.py]";24;"w";3;7;6;6;"YA";74;67;0.905405405405405;3;0.428571428571429;FALSE;-1;3;7;7;7;2.33333333333333;0;"B";"B";"A";1;1;1;0
10;6;"B";15.444290617;"j";"left";"up";-8;6;50;50;"-3";0;100;0;"risky mixed";"simple safe";"loss";"gain";"loss";"gain";-8;6;-3;0;"[03framing.py, 01choiceDD.py, 01choiceLA.py, 03framing_block2.py, 04dsst.py, 05numeracy.py, 02demographics.py]";24;"w";3;7;6;6;"YA";74;67;0.905405405405405;3;0.428571428571429;FALSE;-1;-3;7;0;7;0;1;"A";"A";"A";1;0;0;0
10;33;"B";4.22303341042;"j";"left";"up";-4;6;50;50;"-6";12;50;50;"risky mixed";"risky mixed";"loss";"gain";"loss";"gain";-4;6;-6;12;"[03framing.py, 01choiceDD.py, 01choiceLA.py, 03framing_block2.py, 04dsst.py, 05numeracy.py, 02demographics.py]";24;"w";3;7;6;6;"YA";74;67;0.905405405405405;3;0.428571428571429;FALSE;1;3;5;9;5;3;0;"B";"B";"A";1;1;1;0
10;20;"B";3.06689425866;"j";"left";"down";-8;6;50;50;"3";0;100;0;"risky mixed";"simple safe";"loss";"gain";"gain";"gain";-8;6;3;0;"[03framing.py, 01choiceDD.py, 01choiceLA.py, 03framing_block2.py, 04dsst.py, 05numeracy.py, 02demographics.py]";24;"w";3;7;6;6;"YA";74;67;0.905405405405405;3;0.428571428571429;FALSE;-1;3;7;0;7;0;1;"B";"A";"A";0;1;0;0
10;16;"B";2.80470180084;"f";"right";"down";-4;6;50;50;"3";0;100;0;"risky mixed";"simple safe";"loss";"gain";"gain";"gain";-4;6;3;0;"[03framing.py, 01choiceDD.py, 01choiceLA.py, 03framing_block2.py, 04dsst.py, 05numeracy.py, 02demographics.py]";24;"w";3;7;6;6;"YA";74;67;0.905405405405405;3;0.428571428571429;FALSE;1;3;5;0;5;0;1;"B";"A";"A";0;1;0;0
10;2;"A";2.2652857843;"j";"right";"up";-4;6;50;50;"-3";0;100;0;"risky mixed";"simple safe";"loss";"gain";"loss";"gain";-4;6;-3;0;"[03framing.py, 01choiceDD.py, 01choiceLA.py, 03framing_block2.py, 04dsst.py, 05numeracy.py, 02demographics.py]";24;"w";3;7;6;6;"YA";74;67;0.905405405405405;3;0.428571428571429;FALSE;1;-3;5;0;5;0;1;"A";"A";"A";1;1;1;1
10;36;"B";5.10714573655;"j";"left";"up";-6;6;50;50;"-4";4;50;50;"risky mixed";"risky mixed";"loss";"gain";"loss";"gain";-6;6;-4;4;"[03framing.py, 01choiceDD.py, 01choiceLA.py, 03framing_block2.py, 04dsst.py, 05numeracy.py, 02demographics.py]";24;"w";3;7;6;6;"YA";74;67;0.905405405405405;3;0.428571428571429;FALSE;0;0;6;4;Inf;Inf;0;"B";"A";"B";0;1;0;1
10;18;"B";1.88328974786;"j";"left";"up";-6;6;50;50;"3";0;100;0;"risky mixed";"simple safe";"loss";"gain";"gain";"gain";-6;6;3;0;"[03framing.py, 01choiceDD.py, 01choiceLA.py, 03framing_block2.py, 04dsst.py, 05numeracy.py, 02demographics.py]";24;"w";3;7;6;6;"YA";74;67;0.905405405405405;3;0.428571428571429;FALSE;0;3;6;0;Inf;0;1;"B";"A";"A";0;1;0;0
10;7;"A";3.15684924542;"j";"right";"down";-9;6;50;50;"-3";0;100;0;"risky mixed";"simple safe";"loss";"gain";"loss";"gain";-9;6;-3;0;"[03framing.py, 01choiceDD.py, 01choiceLA.py, 03framing_block2.py, 04dsst.py, 05numeracy.py, 02demographics.py]";24;"w";3;7;6;6;"YA";74;67;0.905405405405405;3;0.428571428571429;FALSE;-1.5;-3;7.5;0;5;0;1;"A";"A";"A";1;1;1;1
10;26;"A";7.11473623054;"f";"left";"up";-7;6;50;50;"-9";3;50;50;"risky mixed";"risky mixed";"loss";"gain";"loss";"gain";-7;6;-9;3;"[03framing.py, 01choiceDD.py, 01choiceLA.py, 03framing_block2.py, 04dsst.py, 05numeracy.py, 02demographics.py]";24;"w";3;7;6;6;"YA";74;67;0.905405405405405;3;0.428571428571429;FALSE;-0.5;-3;6.5;6;13;2;0;"A";"A";"A";1;1;1;1
10;17;"B";2.21049442523;"j";"left";"up";-5;6;50;50;"3";0;100;0;"risky mixed";"simple safe";"loss";"gain";"gain";"gain";-5;6;3;0;"[03framing.py, 01choiceDD.py, 01choiceLA.py, 03framing_block2.py, 04dsst.py, 05numeracy.py, 02demographics.py]";24;"w";3;7;6;6;"YA";74;67;0.905405405405405;3;0.428571428571429;FALSE;0.5;3;5.5;0;11;0;1;"B";"A";"A";0;1;0;0
10;50;"A";9.98302230603;"j";"right";"down";-4;6;50;50;"(0.5 x 9) - (0.5 x 9)";0;100;0;"risky mixed";"complex safe";"loss";"gain";"gain";"gain";-4;6;0;0;"[03framing.py, 01choiceDD.py, 01choiceLA.py, 03framing_block2.py, 04dsst.py, 05numeracy.py, 02demographics.py]";24;"w";3;7;6;6;"YA";74;67;0.905405405405405;3;0.428571428571429;FALSE;1;0;5;0;5;NA;1;"A";"A";NA;1;1;1;NA
100;8;"B";27.1087298144;"f";"right";"down";-3;6;50;50;"0";0;100;0;"risky mixed";"simple safe";"loss";"gain";"gain";"gain";-3;6;0;0;"[03framing.py, 01choiceLA.py, 01choiceDD.py, 03framing_block2.py, 05numeracy.py, 04dsst.py, 02demographics.py]";68;"w";2;5;0;7;"OA";44;43;0.977272727272727;1;0.142857142857143;FALSE;1.5;0;4.5;0;3;NA;1;"A";"A";NA;1;0;0;NA
100;53;"B";27.8380225069;"j";"left";"down";-7;6;50;50;"(0.5 x 6) - (0.5 x 6)";0;100;0;"risky mixed";"complex safe";"loss";"gain";"gain";"gain";-7;6;0;0;"[03framing.py, 01choiceLA.py, 01choiceDD.py, 03framing_block2.py, 05numeracy.py, 04dsst.py, 02demographics.py]";68;"w";2;5;0;7;"OA";44;43;0.977272727272727;1;0.142857142857143;FALSE;-0.5;0;6.5;0;13;NA;1;"B";"A";NA;0;1;0;NA
100;19;"B";14.3776672878;"j";"left";"up";-7;6;50;50;"3";0;100;0;"risky mixed";"simple safe";"loss";"gain";"gain";"gain";-7;6;3;0;"[03framing.py, 01choiceLA.py, 01choiceDD.py, 03framing_block2.py, 05numeracy.py, 04dsst.py, 02demographics.py]";68;"w";2;5;0;7;"OA";44;43;0.977272727272727;1;0.142857142857143;FALSE;-0.5;3;6.5;0;13;0;1;"B";"A";"A";0;1;0;0
100;36;"A";19.3844571004;"j";"right";"up";-6;6;50;50;"-4";4;50;50;"risky mixed";"risky mixed";"loss";"gain";"loss";"gain";-6;6;-4;4;"[03framing.py, 01choiceLA.py, 01choiceDD.py, 03framing_block2.py, 05numeracy.py, 04dsst.py, 02demographics.py]";68;"w";2;5;0;7;"OA";44;43;0.977272727272727;1;0.142857142857143;FALSE;0;0;6;4;Inf;Inf;0;"B";"A";"B";0;0;1;0
100;10;"B";20.6077772957;"f";"right";"up";-5;6;50;50;"0";0;100;0;"risky mixed";"simple safe";"loss";"gain";"gain";"gain";-5;6;0;0;"[03framing.py, 01choiceLA.py, 01choiceDD.py, 03framing_block2.py, 05numeracy.py, 04dsst.py, 02demographics.py]";68;"w";2;5;0;7;"OA";44;43;0.977272727272727;1;0.142857142857143;FALSE;0.5;0;5.5;0;11;NA;1;"A";"A";NA;1;0;0;NA
100;35;"B";21.6036156368;"j";"left";"up";-5;6;50;50;"-5";11;50;50;"risky mixed";"risky mixed";"loss";"gain";"loss";"gain";-5;6;-5;11;"[03framing.py, 01choiceLA.py, 01choiceDD.py, 03framing_block2.py, 05numeracy.py, 04dsst.py, 02demographics.py]";68;"w";2;5;0;7;"OA";44;43;0.977272727272727;1;0.142857142857143;FALSE;0.5;3;5.5;8;11;2.66666666666667;0;"B";"B";"A";1;1;1;0
100;39;"B";17.4178096614;"f";"right";"up";-7;6;50;50;"-3";9;50;50;"risky mixed";"risky mixed";"loss";"gain";"loss";"gain";-7;6;-3;9;"[03framing.py, 01choiceLA.py, 01choiceDD.py, 03framing_block2.py, 05numeracy.py, 04dsst.py, 02demographics.py]";68;"w";2;5;0;7;"OA";44;43;0.977272727272727;1;0.142857142857143;FALSE;-0.5;3;6.5;6;13;2;0;"B";"A";"A";0;1;0;0
100;31;"B";15.8190220032;"j";"left";"up";-7;6;50;50;"-6";6;50;50;"risky mixed";"risky mixed";"loss";"gain";"loss";"gain";-7;6;-6;6;"[03framing.py, 01choiceLA.py, 01choiceDD.py, 03framing_block2.py, 05numeracy.py, 04dsst.py, 02demographics.py]";68;"w";2;5;0;7;"OA";44;43;0.977272727272727;1;0.142857142857143;FALSE;-0.5;0;6.5;6;13;Inf;0;"B";"A";"B";0;1;0;1
100;22;"A";7.92837408551;"f";"left";"up";-4;6;50;50;"-12";6;50;50;"risky mixed";"risky mixed";"loss";"gain";"loss";"gain";-4;6;-12;6;"[03framing.py, 01choiceLA.py, 01choiceDD.py, 03framing_block2.py, 05numeracy.py, 04dsst.py, 02demographics.py]";68;"w";2;5;0;7;"OA";44;43;0.977272727272727;1;0.142857142857143;FALSE;1;-3;5;9;5;3;0;"A";"B";"A";0;1;0;1
100;63;"B";30.3157887592;"f";"right";"down";-3;6;50;50;"(0.5 x 6) - (0.5 x 0)";0;100;0;"risky mixed";"complex safe";"loss";"gain";"gain";"gain";-3;6;3;0;"[03framing.py, 01choiceLA.py, 01choiceDD.py, 03framing_block2.py, 05numeracy.py, 04dsst.py, 02demographics.py]";68;"w";2;5;0;7;"OA";44;43;0.977272727272727;1;0.142857142857143;FALSE;1.5;3;4.5;0;3;0;1;"B";"A";"A";0;1;0;0
100;7;"A";10.2923656098;"f";"left";"down";-9;6;50;50;"-3";0;100;0;"risky mixed";"simple safe";"loss";"gain";"loss";"gain";-9;6;-3;0;"[03framing.py, 01choiceLA.py, 01choiceDD.py, 03framing_block2.py, 05numeracy.py, 04dsst.py, 02demographics.py]";68;"w";2;5;0;7;"OA";44;43;0.977272727272727;1;0.142857142857143;FALSE;-1.5;-3;7.5;0;5;0;1;"A";"A";"A";1;1;1;1
100;3;"B";23.0918280103;"f";"right";"down";-5;6;50;50;"-3";0;100;0;"risky mixed";"simple safe";"loss";"gain";"loss";"gain";-5;6;-3;0;"[03framing.py, 01choiceLA.py, 01choiceDD.py, 03framing_block2.py, 05numeracy.py, 04dsst.py, 02demographics.py]";68;"w";2;5;0;7;"OA";44;43;0.977272727272727;1;0.142857142857143;FALSE;0.5;-3;5.5;0;11;0;1;"A";"A";"A";1;0;0;0
100;58;"B";32.7984323061;"j";"left";"up";-5;6;50;50;"(0.5 x 11) - (0.5 x 5)";0;100;0;"risky mixed";"complex safe";"loss";"gain";"gain";"gain";-5;6;3;0;"[03framing.py, 01choiceLA.py, 01choiceDD.py, 03framing_block2.py, 05numeracy.py, 04dsst.py, 02demographics.py]";68;"w";2;5;0;7;"OA";44;43;0.977272727272727;1;0.142857142857143;FALSE;0.5;3;5.5;0;11;0;1;"B";"A";"A";0;1;0;0
100;37;"B";21.8857584326;"f";"right";"down";-8;6;50;50;"-4";10;50;50;"risky mixed";"risky mixed";"loss";"gain";"loss";"gain";-8;6;-4;10;"[03framing.py, 01choiceLA.py, 01choiceDD.py, 03framing_block2.py, 05numeracy.py, 04dsst.py, 02demographics.py]";68;"w";2;5;0;7;"OA";44;43;0.977272727272727;1;0.142857142857143;FALSE;-1;3;7;7;7;2.33333333333333;0;"B";"B";"A";1;1;1;0
100;20;"B";12.1610651475;"j";"left";"up";-8;6;50;50;"3";0;100;0;"risky mixed";"simple safe";"loss";"gain";"gain";"gain";-8;6;3;0;"[03framing.py, 01choiceLA.py, 01choiceDD.py, 03framing_block2.py, 05numeracy.py, 04dsst.py, 02demographics.py]";68;"w";2;5;0;7;"OA";44;43;0.977272727272727;1;0.142857142857143;FALSE;-1;3;7;0;7;0;1;"B";"A";"A";0;1;0;0
100;55;"B";29.5365824804;"j";"left";"down";-6;6;50;50;"(0.5 x 4) - (0.5 x 4)";0;100;0;"risky mixed";"complex safe";"loss";"gain";"gain";"gain";-6;6;0;0;"[03framing.py, 01choiceLA.py, 01choiceDD.py, 03framing_block2.py, 05numeracy.py, 04dsst.py, 02demographics.py]";68;"w";2;5;0;7;"OA";44;43;0.977272727272727;1;0.142857142857143;FALSE;0;0;6;0;Inf;NA;1;"B";"A";NA;0;1;0;NA
100;6;"B";27.9751170423;"j";"left";"down";-8;6;50;50;"-3";0;100;0;"risky mixed";"simple safe";"loss";"gain";"loss";"gain";-8;6;-3;0;"[03framing.py, 01choiceLA.py, 01choiceDD.py, 03framing_block2.py, 05numeracy.py, 04dsst.py, 02demographics.py]";68;"w";2;5;0;7;"OA";44;43;0.977272727272727;1;0.142857142857143;FALSE;-1;-3;7;0;7;0;1;"A";"A";"A";1;0;0;0
100;12;"B";9.02431000577;"f";"right";"up";-7;6;50;50;"0";0;100;0;"risky mixed";"simple safe";"loss";"gain";"gain";"gain";-7;6;0;0;"[03framing.py, 01choiceLA.py, 01choiceDD.py, 03framing_block2.py, 05numeracy.py, 04dsst.py, 02demographics.py]";68;"w";2;5;0;7;"OA";44;43;0.977272727272727;1;0.142857142857143;FALSE;-0.5;0;6.5;0;13;NA;1;"B";"A";NA;0;1;0;NA
100;42;"B";27.0004820775;"f";"right";"up";-3;6;50;50;"0";6;50;50;"risky mixed";"risky mixed";"loss";"gain";"gain";"gain";-3;6;0;6;"[03framing.py, 01choiceLA.py, 01choiceDD.py, 03framing_block2.py, 05numeracy.py, 04dsst.py, 02demographics.py]";68;"w";2;5;0;7;"OA";44;43;0.977272727272727;1;0.142857142857143;FALSE;1.5;3;4.5;3;3;1;0;"B";"A";"A";0;1;0;0
100;16;"B";11.0862658331;"j";"left";"down";-4;6;50;50;"3";0;100;0;"risky mixed";"simple safe";"loss";"gain";"gain";"gain";-4;6;3;0;"[03framing.py, 01choiceLA.py, 01choiceDD.py, 03framing_block2.py, 05numeracy.py, 04dsst.py, 02demographics.py]";68;"w";2;5;0;7;"OA";44;43;0.977272727272727;1;0.142857142857143;FALSE;1;3;5;0;5;0;1;"B";"A";"A";0;1;0;0
100;14;"B";8.4502615132;"f";"right";"down";-9;6;50;50;"0";0;100;0;"risky mixed";"simple safe";"loss";"gain";"gain";"gain";-9;6;0;0;"[03framing.py, 01choiceLA.py, 01choiceDD.py, 03framing_block2.py, 05numeracy.py, 04dsst.py, 02demographics.py]";68;"w";2;5;0;7;"OA";44;43;0.977272727272727;1;0.142857142857143;FALSE;-1.5;0;7.5;0;5;NA;1;"B";"A";NA;0;1;0;NA
100;49;"A";25.9774454213;"j";"right";"up";-3;6;50;50;"(0.5 x 0) - (0.5 x 6)";0;100;0;"risky mixed";"complex safe";"loss";"gain";"loss";"gain";-3;6;-3;0;"[03framing.py, 01choiceLA.py, 01choiceDD.py, 03framing_block2.py, 05numeracy.py, 04dsst.py, 02demographics.py]";68;"w";2;5;0;7;"OA";44;43;0.977272727272727;1;0.142857142857143;FALSE;1.5;-3;4.5;0;3;0;1;"A";"A";"A";1;1;1;1
100;9;"B";9.0548587596;"f";"right";"down";-4;6;50;50;"0";0;100;0;"risky mixed";"simple safe";"loss";"gain";"gain";"gain";-4;6;0;0;"[03framing.py, 01choiceLA.py, 01choiceDD.py, 03framing_block2.py, 05numeracy.py, 04dsst.py, 02demographics.py]";68;"w";2;5;0;7;"OA";44;43;0.977272727272727;1;0.142857142857143;FALSE;1;0;5;0;5;NA;1;"A";"A";NA;1;0;0;NA
100;29;"B";13.4669652223;"j";"left";"down";-8;6;50;50;"-7";7;50;50;"risky mixed";"risky mixed";"loss";"gain";"loss";"gain";-8;6;-7;7;"[03framing.py, 01choiceLA.py, 01choiceDD.py, 03framing_block2.py, 05numeracy.py, 04dsst.py, 02demographics.py]";68;"w";2;5;0;7;"OA";44;43;0.977272727272727;1;0.142857142857143;FALSE;-1;0;7;7;7;Inf;0;"B";"B";"B";1;1;1;1
100;25;"A";11.2105933488;"j";"right";"up";-4;6;50;50;"-9";9;50;50;"risky mixed";"risky mixed";"loss";"gain";"loss";"gain";-4;6;-9;9;"[03framing.py, 01choiceLA.py, 01choiceDD.py, 03framing_block2.py, 05numeracy.py, 04dsst.py, 02demographics.py]";68;"w";2;5;0;7;"OA";44;43;0.977272727272727;1;0.142857142857143;FALSE;1;0;5;9;5;Inf;0;"A";"B";"B";0;1;0;0
100;34;"B";16.6763971521;"f";"right";"down";-9;6;50;50;"-5";5;50;50;"risky mixed";"risky mixed";"loss";"gain";"loss";"gain";-9;6;-5;5;"[03framing.py, 01choiceLA.py, 01choiceDD.py, 03framing_block2.py, 05numeracy.py, 04dsst.py, 02demographics.py]";68;"w";2;5;0;7;"OA";44;43;0.977272727272727;1;0.142857142857143;FALSE;-1.5;0;7.5;5;5;Inf;0;"B";"A";"B";0;1;0;1
100;62;"B";28.2963280654;"f";"right";"down";-6;6;50;50;"(0.5 x 7) - (0.5 x 1)";0;100;0;"risky mixed";"complex safe";"loss";"gain";"gain";"gain";-6;6;3;0;"[03framing.py, 01choiceLA.py, 01choiceDD.py, 03framing_block2.py, 05numeracy.py, 04dsst.py, 02demographics.py]";68;"w";2;5;0;7;"OA";44;43;0.977272727272727;1;0.142857142857143;FALSE;0;3;6;0;Inf;0;1;"B";"A";"A";0;1;0;0
100;60;"B";26.3203147468;"f";"right";"up";-7;6;50;50;"(0.5 x 9) - (0.5 x 3)";0;100;0;"risky mixed";"complex safe";"loss";"gain";"gain";"gain";-7;6;3;0;"[03framing.py, 01choiceLA.py, 01choiceDD.py, 03framing_block2.py, 05numeracy.py, 04dsst.py, 02demographics.py]";68;"w";2;5;0;7;"OA";44;43;0.977272727272727;1;0.142857142857143;FALSE;-0.5;3;6.5;0;13;0;1;"B";"A";"A";0;1;0;0
100;2;"A";6.2645782736;"j";"right";"up";-4;6;50;50;"-3";0;100;0;"risky mixed";"simple safe";"loss";"gain";"loss";"gain";-4;6;-3;0;"[03framing.py, 01choiceLA.py, 01choiceDD.py, 03framing_block2.py, 05numeracy.py, 04dsst.py, 02demographics.py]";68;"w";2;5;0;7;"OA";44;43;0.977272727272727;1;0.142857142857143;FALSE;1;-3;5;0;5;0;1;"A";"A";"A";1;1;1;1
100;44;"A";48.3605565834;"j";"right";"down";-5;6;50;50;"(0.5 x 5) - (0.5 x 11)";0;100;0;"risky mixed";"complex safe";"loss";"gain";"loss";"gain";-5;6;-3;0;"[03framing.py, 01choiceLA.py, 01choiceDD.py, 03framing_block2.py, 05numeracy.py, 04dsst.py, 02demographics.py]";68;"w";2;5;0;7;"OA";44;43;0.977272727272727;1;0.142857142857143;FALSE;0.5;-3;5.5;0;11;0;1;"A";"A";"A";1;1;1;1
100;4;"B";14.6036228403;"f";"right";"down";-6;6;50;50;"-3";0;100;0;"risky mixed";"simple safe";"loss";"gain";"loss";"gain";-6;6;-3;0;"[03framing.py, 01choiceLA.py, 01choiceDD.py, 03framing_block2.py, 05numeracy.py, 04dsst.py, 02demographics.py]";68;"w";2;5;0;7;"OA";44;43;0.977272727272727;1;0.142857142857143;FALSE;0;-3;6;0;Inf;0;1;"A";"A";"A";1;0;0;0
100;32;"A";10.4770157074;"f";"left";"down";-3;6;50;50;"-6";0;50;50;"risky mixed";"risky mixed";"loss";"gain";"loss";"gain";-3;6;-6;0;"[03framing.py, 01choiceLA.py, 01choiceDD.py, 03framing_block2.py, 05numeracy.py, 04dsst.py, 02demographics.py]";68;"w";2;5;0;7;"OA";44;43;0.977272727272727;1;0.142857142857143;FALSE;1.5;-3;4.5;3;3;1;0;"A";"A";"A";1;1;1;1
100;23;"A";16.4675279231;"f";"left";"up";-5;6;50;50;"-11";5;50;50;"risky mixed";"risky mixed";"loss";"gain";"loss";"gain";-5;6;-11;5;"[03framing.py, 01choiceLA.py, 01choiceDD.py, 03framing_block2.py, 05numeracy.py, 04dsst.py, 02demographics.py]";68;"w";2;5;0;7;"OA";44;43;0.977272727272727;1;0.142857142857143;FALSE;0.5;-3;5.5;8;11;2.66666666666667;0;"A";"B";"A";0;1;0;1
100;33;"A";25.6629341676;"f";"left";"up";-4;6;50;50;"-6";12;50;50;"risky mixed";"risky mixed";"loss";"gain";"loss";"gain";-4;6;-6;12;"[03framing.py, 01choiceLA.py, 01choiceDD.py, 03framing_block2.py, 05numeracy.py, 04dsst.py, 02demographics.py]";68;"w";2;5;0;7;"OA";44;43;0.977272727272727;1;0.142857142857143;FALSE;1;3;5;9;5;3;0;"B";"B";"A";1;0;0;1
100;41;"B";10.0382024271;"f";"right";"up";-6;6;50;50;"-1";7;50;50;"risky mixed";"risky mixed";"loss";"gain";"loss";"gain";-6;6;-1;7;"[03framing.py, 01choiceLA.py, 01choiceDD.py, 03framing_block2.py, 05numeracy.py, 04dsst.py, 02demographics.py]";68;"w";2;5;0;7;"OA";44;43;0.977272727272727;1;0.142857142857143;FALSE;0;3;6;4;Inf;1.33333333333333;0;"B";"A";"A";0;1;0;0
100;13;"B";11.4170538525;"f";"right";"up";-8;6;50;50;"0";0;100;0;"risky mixed";"simple safe";"loss";"gain";"gain";"gain";-8;6;0;0;"[03framing.py, 01choiceLA.py, 01choiceDD.py, 03framing_block2.py, 05numeracy.py, 04dsst.py, 02demographics.py]";68;"w";2;5;0;7;"OA";44;43;0.977272727272727;1;0.142857142857143;FALSE;-1;0;7;0;7;NA;1;"B";"A";NA;0;1;0;NA
100;48;"B";26.6019857161;"j";"left";"down";-6;6;50;50;"(0.5 x 1) - (0.5 x 7)";0;100;0;"risky mixed";"complex safe";"loss";"gain";"loss";"gain";-6;6;-3;0;"[03framing.py, 01choiceLA.py, 01choiceDD.py, 03framing_block2.py, 05numeracy.py, 04dsst.py, 02demographics.py]";68;"w";2;5;0;7;"OA";44;43;0.977272727272727;1;0.142857142857143;FALSE;0;-3;6;0;Inf;0;1;"A";"A";"A";1;0;0;0
100;57;"B";25.9279546227;"j";"left";"down";-4;6;50;50;"(0.5 x 12) - (0.5 x 6)";0;100;0;"risky mixed";"complex safe";"loss";"gain";"gain";"gain";-4;6;3;0;"[03framing.py, 01choiceLA.py, 01choiceDD.py, 03framing_block2.py, 05numeracy.py, 04dsst.py, 02demographics.py]";68;"w";2;5;0;7;"OA";44;43;0.977272727272727;1;0.142857142857143;FALSE;1;3;5;0;5;0;1;"B";"A";"A";0;1;0;0
100;28;"A";15.8888440058;"j";"right";"up";-9;6;50;50;"-8";2;50;50;"risky mixed";"risky mixed";"loss";"gain";"loss";"gain";-9;6;-8;2;"[03framing.py, 01choiceLA.py, 01choiceDD.py, 03framing_block2.py, 05numeracy.py, 04dsst.py, 02demographics.py]";68;"w";2;5;0;7;"OA";44;43;0.977272727272727;1;0.142857142857143;FALSE;-1.5;-3;7.5;5;5;1.66666666666667;0;"A";"A";"A";1;1;1;1
100;52;"B";25.1895429074;"j";"left";"down";-8;6;50;50;"(0.5 x 7) - (0.5 x 7)";0;100;0;"risky mixed";"complex safe";"loss";"gain";"gain";"gain";-8;6;0;0;"[03framing.py, 01choiceLA.py, 01choiceDD.py, 03framing_block2.py, 05numeracy.py, 04dsst.py, 02demographics.py]";68;"w";2;5;0;7;"OA";44;43;0.977272727272727;1;0.142857142857143;FALSE;-1;0;7;0;7;NA;1;"B";"A";NA;0;1;0;NA
100;15;"B";11.3438711601;"j";"left";"up";-3;6;50;50;"3";0;100;0;"risky mixed";"simple safe";"loss";"gain";"gain";"gain";-3;6;3;0;"[03framing.py, 01choiceLA.py, 01choiceDD.py, 03framing_block2.py, 05numeracy.py, 04dsst.py, 02demographics.py]";68;"w";2;5;0;7;"OA";44;43;0.977272727272727;1;0.142857142857143;FALSE;1.5;3;4.5;0;3;0;1;"B";"A";"A";0;1;0;0
100;17;"B";13.6142728747;"j";"left";"up";-5;6;50;50;"3";0;100;0;"risky mixed";"simple safe";"loss";"gain";"gain";"gain";-5;6;3;0;"[03framing.py, 01choiceLA.py, 01choiceDD.py, 03framing_block2.py, 05numeracy.py, 04dsst.py, 02demographics.py]";68;"w";2;5;0;7;"OA";44;43;0.977272727272727;1;0.142857142857143;FALSE;0.5;3;5.5;0;11;0;1;"B";"A";"A";0;1;0;0
100;21;"B";12.6108019166;"f";"right";"down";-9;6;50;50;"3";0;100;0;"risky mixed";"simple safe";"loss";"gain";"gain";"gain";-9;6;3;0;"[03framing.py, 01choiceLA.py, 01choiceDD.py, 03framing_block2.py, 05numeracy.py, 04dsst.py, 02demographics.py]";68;"w";2;5;0;7;"OA";44;43;0.977272727272727;1;0.142857142857143;FALSE;-1.5;3;7.5;0;5;0;1;"B";"A";"A";0;1;0;0
100;46;"B";29.0688802891;"f";"right";"up";-7;6;50;50;"(0.5 x 3) - (0.5 x 9)";0;100;0;"risky mixed";"complex safe";"loss";"gain";"loss";"gain";-7;6;-3;0;"[03framing.py, 01choiceLA.py, 01choiceDD.py, 03framing_block2.py, 05numeracy.py, 04dsst.py, 02demographics.py]";68;"w";2;5;0;7;"OA";44;43;0.977272727272727;1;0.142857142857143;FALSE;-0.5;-3;6.5;0;13;0;1;"A";"A";"A";1;0;0;0
100;26;"A";14.2142485492;"f";"left";"up";-7;6;50;50;"-9";3;50;50;"risky mixed";"risky mixed";"loss";"gain";"loss";"gain";-7;6;-9;3;"[03framing.py, 01choiceLA.py, 01choiceDD.py, 03framing_block2.py, 05numeracy.py, 04dsst.py, 02demographics.py]";68;"w";2;5;0;7;"OA";44;43;0.977272727272727;1;0.142857142857143;FALSE;-0.5;-3;6.5;6;13;2;0;"A";"A";"A";1;1;1;1
100;24;"A";15.5612316028;"j";"right";"up";-8;6;50;50;"-10";4;50;50;"risky mixed";"risky mixed";"loss";"gain";"loss";"gain";-8;6;-10;4;"[03framing.py, 01choiceLA.py, 01choiceDD.py, 03framing_block2.py, 05numeracy.py, 04dsst.py, 02demographics.py]";68;"w";2;5;0;7;"OA";44;43;0.977272727272727;1;0.142857142857143;FALSE;-1;-3;7;7;7;2.33333333333333;0;"A";"B";"A";0;1;0;1
100;18;"B";8.07006747423;"j";"left";"up";-6;6;50;50;"3";0;100;0;"risky mixed";"simple safe";"loss";"gain";"gain";"gain";-6;6;3;0;"[03framing.py, 01choiceLA.py, 01choiceDD.py, 03framing_block2.py, 05numeracy.py, 04dsst.py, 02demographics.py]";68;"w";2;5;0;7;"OA";44;43;0.977272727272727;1;0.142857142857143;FALSE;0;3;6;0;Inf;0;1;"B";"A";"A";0;1;0;0
100;61;"B";33.9629534507;"j";"left";"up";-9;6;50;50;"(0.5 x 8) - (0.5 x 2)";0;100;0;"risky mixed";"complex safe";"loss";"gain";"gain";"gain";-9;6;3;0;"[03framing.py, 01choiceLA.py, 01choiceDD.py, 03framing_block2.py, 05numeracy.py, 04dsst.py, 02demographics.py]";68;"w";2;5;0;7;"OA";44;43;0.977272727272727;1;0.142857142857143;FALSE;-1.5;3;7.5;0;5;0;1;"B";"A";"A";0;1;0;0
100;56;"B";12.3792866804;"j";"left";"up";-3;6;50;50;"(0.5 x 3) - (0.5 x 3)";0;100;0;"risky mixed";"complex safe";"loss";"gain";"gain";"gain";-3;6;0;0;"[03framing.py, 01choiceLA.py, 01choiceDD.py, 03framing_block2.py, 05numeracy.py, 04dsst.py, 02demographics.py]";68;"w";2;5;0;7;"OA";44;43;0.977272727272727;1;0.142857142857143;FALSE;1.5;0;4.5;0;3;NA;1;"A";"A";NA;1;0;0;NA
100;27;"A";21.257575405;"f";"left";"up";-5;6;50;50;"-8";8;50;50;"risky mixed";"risky mixed";"loss";"gain";"loss";"gain";-5;6;-8;8;"[03framing.py, 01choiceLA.py, 01choiceDD.py, 03framing_block2.py, 05numeracy.py, 04dsst.py, 02demographics.py]";68;"w";2;5;0;7;"OA";44;43;0.977272727272727;1;0.142857142857143;FALSE;0.5;0;5.5;8;11;Inf;0;"A";"B";"B";0;1;0;0
100;30;"A";11.381098627;"f";"left";"up";-6;6;50;50;"-7";1;50;50;"risky mixed";"risky mixed";"loss";"gain";"loss";"gain";-6;6;-7;1;"[03framing.py, 01choiceLA.py, 01choiceDD.py, 03framing_block2.py, 05numeracy.py, 04dsst.py, 02demographics.py]";68;"w";2;5;0;7;"OA";44;43;0.977272727272727;1;0.142857142857143;FALSE;0;-3;6;4;Inf;1.33333333333333;0;"A";"A";"A";1;1;1;1
100;43;"B";24.5401734038;"f";"right";"down";-4;6;50;50;"(0.5 x 6) - (0.5 x 12)";0;100;0;"risky mixed";"complex safe";"loss";"gain";"loss";"gain";-4;6;-3;0;"[03framing.py, 01choiceLA.py, 01choiceDD.py, 03framing_block2.py, 05numeracy.py, 04dsst.py, 02demographics.py]";68;"w";2;5;0;7;"OA";44;43;0.977272727272727;1;0.142857142857143;FALSE;1;-3;5;0;5;0;1;"A";"A";"A";1;0;0;0
100;5;"B";9.4491823799;"f";"right";"down";-7;6;50;50;"-3";0;100;0;"risky mixed";"simple safe";"loss";"gain";"loss";"gain";-7;6;-3;0;"[03framing.py, 01choiceLA.py, 01choiceDD.py, 03framing_block2.py, 05numeracy.py, 04dsst.py, 02demographics.py]";68;"w";2;5;0;7;"OA";44;43;0.977272727272727;1;0.142857142857143;FALSE;-0.5;-3;6.5;0;13;0;1;"A";"A";"A";1;0;0;0
100;38;"A";11.4081007863;"j";"right";"down";-3;6;50;50;"-3";3;50;50;"risky mixed";"risky mixed";"loss";"gain";"loss";"gain";-3;6;-3;3;"[03framing.py, 01choiceLA.py, 01choiceDD.py, 03framing_block2.py, 05numeracy.py, 04dsst.py, 02demographics.py]";68;"w";2;5;0;7;"OA";44;43;0.977272727272727;1;0.142857142857143;FALSE;1.5;0;4.5;3;3;Inf;0;"A";"A";"B";1;1;1;0
100;51;"A";16.3242342586;"f";"left";"up";-5;6;50;50;"(0.5 x 8) - (0.5 x 8)";0;100;0;"risky mixed";"complex safe";"loss";"gain";"gain";"gain";-5;6;0;0;"[03framing.py, 01choiceLA.py, 01choiceDD.py, 03framing_block2.py, 05numeracy.py, 04dsst.py, 02demographics.py]";68;"w";2;5;0;7;"OA";44;43;0.977272727272727;1;0.142857142857143;FALSE;0.5;0;5.5;0;11;NA;1;"A";"A";NA;1;1;1;NA
100;45;"B";22.8273170613;"f";"right";"down";-8;6;50;50;"(0.5 x 4) - (0.5 x 10)";0;100;0;"risky mixed";"complex safe";"loss";"gain";"loss";"gain";-8;6;-3;0;"[03framing.py, 01choiceLA.py, 01choiceDD.py, 03framing_block2.py, 05numeracy.py, 04dsst.py, 02demographics.py]";68;"w";2;5;0;7;"OA";44;43;0.977272727272727;1;0.142857142857143;FALSE;-1;-3;7;0;7;0;1;"A";"A";"A";1;0;0;0
100;11;"B";9.61490677895;"f";"right";"up";-6;6;50;50;"0";0;100;0;"risky mixed";"simple safe";"loss";"gain";"gain";"gain";-6;6;0;0;"[03framing.py, 01choiceLA.py, 01choiceDD.py, 03framing_block2.py, 05numeracy.py, 04dsst.py, 02demographics.py]";68;"w";2;5;0;7;"OA";44;43;0.977272727272727;1;0.142857142857143;FALSE;0;0;6;0;Inf;NA;1;"B";"A";NA;0;1;0;NA
100;50;"A";9.24840291042;"j";"right";"up";-4;6;50;50;"(0.5 x 9) - (0.5 x 9)";0;100;0;"risky mixed";"complex safe";"loss";"gain";"gain";"gain";-4;6;0;0;"[03framing.py, 01choiceLA.py, 01choiceDD.py, 03framing_block2.py, 05numeracy.py, 04dsst.py, 02demographics.py]";68;"w";2;5;0;7;"OA";44;43;0.977272727272727;1;0.142857142857143;FALSE;1;0;5;0;5;NA;1;"A";"A";NA;1;1;1;NA
100;1;"A";5.06795270543;"j";"right";"up";-3;6;50;50;"-3";0;100;0;"risky mixed";"simple safe";"loss";"gain";"loss";"gain";-3;6;-3;0;"[03framing.py, 01choiceLA.py, 01choiceDD.py, 03framing_block2.py, 05numeracy.py, 04dsst.py, 02demographics.py]";68;"w";2;5;0;7;"OA";44;43;0.977272727272727;1;0.142857142857143;FALSE;1.5;-3;4.5;0;3;0;1;"A";"A";"A";1;1;1;1
100;40;"B";15.5591301327;"f";"right";"up";-9;6;50;50;"-2";8;50;50;"risky mixed";"risky mixed";"loss";"gain";"loss";"gain";-9;6;-2;8;"[03framing.py, 01choiceLA.py, 01choiceDD.py, 03framing_block2.py, 05numeracy.py, 04dsst.py, 02demographics.py]";68;"w";2;5;0;7;"OA";44;43;0.977272727272727;1;0.142857142857143;FALSE;-1.5;3;7.5;5;5;1.66666666666667;0;"B";"A";"A";0;1;0;0
100;47;"B";9.44131869813;"f";"right";"down";-9;6;50;50;"(0.5 x 2) - (0.5 x 8)";0;100;0;"risky mixed";"complex safe";"loss";"gain";"loss";"gain";-9;6;-3;0;"[03framing.py, 01choiceLA.py, 01choiceDD.py, 03framing_block2.py, 05numeracy.py, 04dsst.py, 02demographics.py]";68;"w";2;5;0;7;"OA";44;43;0.977272727272727;1;0.142857142857143;FALSE;-1.5;-3;7.5;0;5;0;1;"A";"A";"A";1;0;0;0
100;54;"B";6.15860655215;"f";"right";"up";-9;6;50;50;"(0.5 x 5) - (0.5 x 5)";0;100;0;"risky mixed";"complex safe";"loss";"gain";"gain";"gain";-9;6;0;0;"[03framing.py, 01choiceLA.py, 01choiceDD.py, 03framing_block2.py, 05numeracy.py, 04dsst.py, 02demographics.py]";68;"w";2;5;0;7;"OA";44;43;0.977272727272727;1;0.142857142857143;FALSE;-1.5;0;7.5;0;5;NA;1;"B";"A";NA;0;1;0;NA
100;59;"B";34.1247555673;"f";"right";"up";-8;6;50;50;"(0.5 x 10) - (0.5 x 4)";0;100;0;"risky mixed";"complex safe";"loss";"gain";"gain";"gain";-8;6;3;0;"[03framing.py, 01choiceLA.py, 01choiceDD.py, 03framing_block2.py, 05numeracy.py, 04dsst.py, 02demographics.py]";68;"w";2;5;0;7;"OA";44;43;0.977272727272727;1;0.142857142857143;FALSE;-1;3;7;0;7;0;1;"B";"A";"A";0;1;0;0
101;43;"B";16.3530453984;"j";"left";"up";-4;6;50;50;"(0.5 x 6) - (0.5 x 12)";0;100;0;"risky mixed";"complex safe";"loss";"gain";"loss";"gain";-4;6;-3;0;"[03framing.py, 01choiceDD.py, 01choiceLA.py, 03framing_block2.py, 04dsst.py, 05numeracy.py, 02demographics.py]";74;"w";2;4;5;5;"OA";33;33;1;2;0.285714285714286;FALSE;1;-3;5;0;5;0;1;"A";"A";"A";1;0;0;0
101;36;"A";18.2313053765;"j";"right";"down";-6;6;50;50;"-4";4;50;50;"risky mixed";"risky mixed";"loss";"gain";"loss";"gain";-6;6;-4;4;"[03framing.py, 01choiceDD.py, 01choiceLA.py, 03framing_block2.py, 04dsst.py, 05numeracy.py, 02demographics.py]";74;"w";2;4;5;5;"OA";33;33;1;2;0.285714285714286;FALSE;0;0;6;4;Inf;Inf;0;"B";"A";"B";0;0;1;0
101;44;"A";10.2740725554;"j";"right";"up";-5;6;50;50;"(0.5 x 5) - (0.5 x 11)";0;100;0;"risky mixed";"complex safe";"loss";"gain";"loss";"gain";-5;6;-3;0;"[03framing.py, 01choiceDD.py, 01choiceLA.py, 03framing_block2.py, 04dsst.py, 05numeracy.py, 02demographics.py]";74;"w";2;4;5;5;"OA";33;33;1;2;0.285714285714286;FALSE;0.5;-3;5.5;0;11;0;1;"A";"A";"A";1;1;1;1
101;12;"A";7.08370107886;"j";"right";"up";-7;6;50;50;"0";0;100;0;"risky mixed";"simple safe";"loss";"gain";"gain";"gain";-7;6;0;0;"[03framing.py, 01choiceDD.py, 01choiceLA.py, 03framing_block2.py, 04dsst.py, 05numeracy.py, 02demographics.py]";74;"w";2;4;5;5;"OA";33;33;1;2;0.285714285714286;FALSE;-0.5;0;6.5;0;13;NA;1;"B";"A";NA;0;0;1;NA
101;35;"B";10.1969820302;"j";"left";"up";-5;6;50;50;"-5";11;50;50;"risky mixed";"risky mixed";"loss";"gain";"loss";"gain";-5;6;-5;11;"[03framing.py, 01choiceDD.py, 01choiceLA.py, 03framing_block2.py, 04dsst.py, 05numeracy.py, 02demographics.py]";74;"w";2;4;5;5;"OA";33;33;1;2;0.285714285714286;FALSE;0.5;3;5.5;8;11;2.66666666666667;0;"B";"B";"A";1;1;1;0
101;8;"A";3.69733721581;"f";"left";"up";-3;6;50;50;"0";0;100;0;"risky mixed";"simple safe";"loss";"gain";"gain";"gain";-3;6;0;0;"[03framing.py, 01choiceDD.py, 01choiceLA.py, 03framing_block2.py, 04dsst.py, 05numeracy.py, 02demographics.py]";74;"w";2;4;5;5;"OA";33;33;1;2;0.285714285714286;FALSE;1.5;0;4.5;0;3;NA;1;"A";"A";NA;1;1;1;NA
101;46;"B";9.249905801;"f";"right";"down";-7;6;50;50;"(0.5 x 3) - (0.5 x 9)";0;100;0;"risky mixed";"complex safe";"loss";"gain";"loss";"gain";-7;6;-3;0;"[03framing.py, 01choiceDD.py, 01choiceLA.py, 03framing_block2.py, 04dsst.py, 05numeracy.py, 02demographics.py]";74;"w";2;4;5;5;"OA";33;33;1;2;0.285714285714286;FALSE;-0.5;-3;6.5;0;13;0;1;"A";"A";"A";1;0;0;0
101;4;"A";12.628789432;"f";"left";"down";-6;6;50;50;"-3";0;100;0;"risky mixed";"simple safe";"loss";"gain";"loss";"gain";-6;6;-3;0;"[03framing.py, 01choiceDD.py, 01choiceLA.py, 03framing_block2.py, 04dsst.py, 05numeracy.py, 02demographics.py]";74;"w";2;4;5;5;"OA";33;33;1;2;0.285714285714286;FALSE;0;-3;6;0;Inf;0;1;"A";"A";"A";1;1;1;1
101;58;"B";12.9930924425;"f";"right";"down";-5;6;50;50;"(0.5 x 11) - (0.5 x 5)";0;100;0;"risky mixed";"complex safe";"loss";"gain";"gain";"gain";-5;6;3;0;"[03framing.py, 01choiceDD.py, 01choiceLA.py, 03framing_block2.py, 04dsst.py, 05numeracy.py, 02demographics.py]";74;"w";2;4;5;5;"OA";33;33;1;2;0.285714285714286;FALSE;0.5;3;5.5;0;11;0;1;"B";"A";"A";0;1;0;0
101;17;"A";9.29411228521;"j";"right";"up";-5;6;50;50;"3";0;100;0;"risky mixed";"simple safe";"loss";"gain";"gain";"gain";-5;6;3;0;"[03framing.py, 01choiceDD.py, 01choiceLA.py, 03framing_block2.py, 04dsst.py, 05numeracy.py, 02demographics.py]";74;"w";2;4;5;5;"OA";33;33;1;2;0.285714285714286;FALSE;0.5;3;5.5;0;11;0;1;"B";"A";"A";0;0;1;1
101;53;"A";5.0877907009;"j";"right";"down";-7;6;50;50;"(0.5 x 6) - (0.5 x 6)";0;100;0;"risky mixed";"complex safe";"loss";"gain";"gain";"gain";-7;6;0;0;"[03framing.py, 01choiceDD.py, 01choiceLA.py, 03framing_block2.py, 04dsst.py, 05numeracy.py, 02demographics.py]";74;"w";2;4;5;5;"OA";33;33;1;2;0.285714285714286;FALSE;-0.5;0;6.5;0;13;NA;1;"B";"A";NA;0;0;1;NA
101;54;"A";6.80899184902;"f";"left";"down";-9;6;50;50;"(0.5 x 5) - (0.5 x 5)";0;100;0;"risky mixed";"complex safe";"loss";"gain";"gain";"gain";-9;6;0;0;"[03framing.py, 01choiceDD.py, 01choiceLA.py, 03framing_block2.py, 04dsst.py, 05numeracy.py, 02demographics.py]";74;"w";2;4;5;5;"OA";33;33;1;2;0.285714285714286;FALSE;-1.5;0;7.5;0;5;NA;1;"B";"A";NA;0;0;1;NA
101;10;"A";5.14944921288;"j";"right";"down";-5;6;50;50;"0";0;100;0;"risky mixed";"simple safe";"loss";"gain";"gain";"gain";-5;6;0;0;"[03framing.py, 01choiceDD.py, 01choiceLA.py, 03framing_block2.py, 04dsst.py, 05numeracy.py, 02demographics.py]";74;"w";2;4;5;5;"OA";33;33;1;2;0.285714285714286;FALSE;0.5;0;5.5;0;11;NA;1;"A";"A";NA;1;1;1;NA
101;11;"A";5.95597692679;"f";"left";"down";-6;6;50;50;"0";0;100;0;"risky mixed";"simple safe";"loss";"gain";"gain";"gain";-6;6;0;0;"[03framing.py, 01choiceDD.py, 01choiceLA.py, 03framing_block2.py, 04dsst.py, 05numeracy.py, 02demographics.py]";74;"w";2;4;5;5;"OA";33;33;1;2;0.285714285714286;FALSE;0;0;6;0;Inf;NA;1;"B";"A";NA;0;0;1;NA
101;2;"A";3.7704456167;"j";"right";"down";-4;6;50;50;"-3";0;100;0;"risky mixed";"simple safe";"loss";"gain";"loss";"gain";-4;6;-3;0;"[03framing.py, 01choiceDD.py, 01choiceLA.py, 03framing_block2.py, 04dsst.py, 05numeracy.py, 02demographics.py]";74;"w";2;4;5;5;"OA";33;33;1;2;0.285714285714286;FALSE;1;-3;5;0;5;0;1;"A";"A";"A";1;1;1;1
101;26;"B";5.39963345505;"j";"left";"down";-7;6;50;50;"-9";3;50;50;"risky mixed";"risky mixed";"loss";"gain";"loss";"gain";-7;6;-9;3;"[03framing.py, 01choiceDD.py, 01choiceLA.py, 03framing_block2.py, 04dsst.py, 05numeracy.py, 02demographics.py]";74;"w";2;4;5;5;"OA";33;33;1;2;0.285714285714286;FALSE;-0.5;-3;6.5;6;13;2;0;"A";"A";"A";1;0;0;0
101;47;"B";14.2601507738;"j";"left";"down";-9;6;50;50;"(0.5 x 2) - (0.5 x 8)";0;100;0;"risky mixed";"complex safe";"loss";"gain";"loss";"gain";-9;6;-3;0;"[03framing.py, 01choiceDD.py, 01choiceLA.py, 03framing_block2.py, 04dsst.py, 05numeracy.py, 02demographics.py]";74;"w";2;4;5;5;"OA";33;33;1;2;0.285714285714286;FALSE;-1.5;-3;7.5;0;5;0;1;"A";"A";"A";1;0;0;0
101;23;"A";7.83840299442;"j";"right";"up";-5;6;50;50;"-11";5;50;50;"risky mixed";"risky mixed";"loss";"gain";"loss";"gain";-5;6;-11;5;"[03framing.py, 01choiceDD.py, 01choiceLA.py, 03framing_block2.py, 04dsst.py, 05numeracy.py, 02demographics.py]";74;"w";2;4;5;5;"OA";33;33;1;2;0.285714285714286;FALSE;0.5;-3;5.5;8;11;2.66666666666667;0;"A";"B";"A";0;1;0;1
101;59;"B";18.233627659;"j";"left";"down";-8;6;50;50;"(0.5 x 10) - (0.5 x 4)";0;100;0;"risky mixed";"complex safe";"loss";"gain";"gain";"gain";-8;6;3;0;"[03framing.py, 01choiceDD.py, 01choiceLA.py, 03framing_block2.py, 04dsst.py, 05numeracy.py, 02demographics.py]";74;"w";2;4;5;5;"OA";33;33;1;2;0.285714285714286;FALSE;-1;3;7;0;7;0;1;"B";"A";"A";0;1;0;0
101;30;"A";8.24434833683;"j";"right";"down";-6;6;50;50;"-7";1;50;50;"risky mixed";"risky mixed";"loss";"gain";"loss";"gain";-6;6;-7;1;"[03framing.py, 01choiceDD.py, 01choiceLA.py, 03framing_block2.py, 04dsst.py, 05numeracy.py, 02demographics.py]";74;"w";2;4;5;5;"OA";33;33;1;2;0.285714285714286;FALSE;0;-3;6;4;Inf;1.33333333333333;0;"A";"A";"A";1;1;1;1
101;40;"B";5.9993863212;"j";"left";"up";-9;6;50;50;"-2";8;50;50;"risky mixed";"risky mixed";"loss";"gain";"loss";"gain";-9;6;-2;8;"[03framing.py, 01choiceDD.py, 01choiceLA.py, 03framing_block2.py, 04dsst.py, 05numeracy.py, 02demographics.py]";74;"w";2;4;5;5;"OA";33;33;1;2;0.285714285714286;FALSE;-1.5;3;7.5;5;5;1.66666666666667;0;"B";"A";"A";0;1;0;0
101;62;"A";4.46784323069;"f";"left";"up";-6;6;50;50;"(0.5 x 7) - (0.5 x 1)";0;100;0;"risky mixed";"complex safe";"loss";"gain";"gain";"gain";-6;6;3;0;"[03framing.py, 01choiceDD.py, 01choiceLA.py, 03framing_block2.py, 04dsst.py, 05numeracy.py, 02demographics.py]";74;"w";2;4;5;5;"OA";33;33;1;2;0.285714285714286;FALSE;0;3;6;0;Inf;0;1;"B";"A";"A";0;0;1;1
101;42;"B";9.38944888042;"j";"left";"up";-3;6;50;50;"0";6;50;50;"risky mixed";"risky mixed";"loss";"gain";"gain";"gain";-3;6;0;6;"[03framing.py, 01choiceDD.py, 01choiceLA.py, 03framing_block2.py, 04dsst.py, 05numeracy.py, 02demographics.py]";74;"w";2;4;5;5;"OA";33;33;1;2;0.285714285714286;FALSE;1.5;3;4.5;3;3;1;0;"B";"A";"A";0;1;0;0
101;50;"A";7.86649396849;"j";"right";"down";-4;6;50;50;"(0.5 x 9) - (0.5 x 9)";0;100;0;"risky mixed";"complex safe";"loss";"gain";"gain";"gain";-4;6;0;0;"[03framing.py, 01choiceDD.py, 01choiceLA.py, 03framing_block2.py, 04dsst.py, 05numeracy.py, 02demographics.py]";74;"w";2;4;5;5;"OA";33;33;1;2;0.285714285714286;FALSE;1;0;5;0;5;NA;1;"A";"A";NA;1;1;1;NA
101;60;"B";11.0288711635;"j";"left";"down";-7;6;50;50;"(0.5 x 9) - (0.5 x 3)";0;100;0;"risky mixed";"complex safe";"loss";"gain";"gain";"gain";-7;6;3;0;"[03framing.py, 01choiceDD.py, 01choiceLA.py, 03framing_block2.py, 04dsst.py, 05numeracy.py, 02demographics.py]";74;"w";2;4;5;5;"OA";33;33;1;2;0.285714285714286;FALSE;-0.5;3;6.5;0;13;0;1;"B";"A";"A";0;1;0;0
101;18;"B";2.68859139243;"f";"right";"down";-6;6;50;50;"3";0;100;0;"risky mixed";"simple safe";"loss";"gain";"gain";"gain";-6;6;3;0;"[03framing.py, 01choiceDD.py, 01choiceLA.py, 03framing_block2.py, 04dsst.py, 05numeracy.py, 02demographics.py]";74;"w";2;4;5;5;"OA";33;33;1;2;0.285714285714286;FALSE;0;3;6;0;Inf;0;1;"B";"A";"A";0;1;0;0
101;41;"B";6.29797167381;"f";"right";"down";-6;6;50;50;"-1";7;50;50;"risky mixed";"risky mixed";"loss";"gain";"loss";"gain";-6;6;-1;7;"[03framing.py, 01choiceDD.py, 01choiceLA.py, 03framing_block2.py, 04dsst.py, 05numeracy.py, 02demographics.py]";74;"w";2;4;5;5;"OA";33;33;1;2;0.285714285714286;FALSE;0;3;6;4;Inf;1.33333333333333;0;"B";"A";"A";0;1;0;0
101;34;"A";8.88245294206;"j";"right";"up";-9;6;50;50;"-5";5;50;50;"risky mixed";"risky mixed";"loss";"gain";"loss";"gain";-9;6;-5;5;"[03framing.py, 01choiceDD.py, 01choiceLA.py, 03framing_block2.py, 04dsst.py, 05numeracy.py, 02demographics.py]";74;"w";2;4;5;5;"OA";33;33;1;2;0.285714285714286;FALSE;-1.5;0;7.5;5;5;Inf;0;"B";"A";"B";0;0;1;0
101;27;"A";6.48332068111;"f";"left";"up";-5;6;50;50;"-8";8;50;50;"risky mixed";"risky mixed";"loss";"gain";"loss";"gain";-5;6;-8;8;"[03framing.py, 01choiceDD.py, 01choiceLA.py, 03framing_block2.py, 04dsst.py, 05numeracy.py, 02demographics.py]";74;"w";2;4;5;5;"OA";33;33;1;2;0.285714285714286;FALSE;0.5;0;5.5;8;11;Inf;0;"A";"B";"B";0;1;0;0
101;37;"B";5.26849874494;"f";"right";"up";-8;6;50;50;"-4";10;50;50;"risky mixed";"risky mixed";"loss";"gain";"loss";"gain";-8;6;-4;10;"[03framing.py, 01choiceDD.py, 01choiceLA.py, 03framing_block2.py, 04dsst.py, 05numeracy.py, 02demographics.py]";74;"w";2;4;5;5;"OA";33;33;1;2;0.285714285714286;FALSE;-1;3;7;7;7;2.33333333333333;0;"B";"B";"A";1;1;1;0
101;28;"B";20.8224880727;"j";"left";"down";-9;6;50;50;"-8";2;50;50;"risky mixed";"risky mixed";"loss";"gain";"loss";"gain";-9;6;-8;2;"[03framing.py, 01choiceDD.py, 01choiceLA.py, 03framing_block2.py, 04dsst.py, 05numeracy.py, 02demographics.py]";74;"w";2;4;5;5;"OA";33;33;1;2;0.285714285714286;FALSE;-1.5;-3;7.5;5;5;1.66666666666667;0;"A";"A";"A";1;0;0;0
101;20;"B";6.24984651103;"f";"right";"up";-8;6;50;50;"3";0;100;0;"risky mixed";"simple safe";"loss";"gain";"gain";"gain";-8;6;3;0;"[03framing.py, 01choiceDD.py, 01choiceLA.py, 03framing_block2.py, 04dsst.py, 05numeracy.py, 02demographics.py]";74;"w";2;4;5;5;"OA";33;33;1;2;0.285714285714286;FALSE;-1;3;7;0;7;0;1;"B";"A";"A";0;1;0;0
101;9;"A";3.76487984086;"f";"left";"up";-4;6;50;50;"0";0;100;0;"risky mixed";"simple safe";"loss";"gain";"gain";"gain";-4;6;0;0;"[03framing.py, 01choiceDD.py, 01choiceLA.py, 03framing_block2.py, 04dsst.py, 05numeracy.py, 02demographics.py]";74;"w";2;4;5;5;"OA";33;33;1;2;0.285714285714286;FALSE;1;0;5;0;5;NA;1;"A";"A";NA;1;1;1;NA
101;32;"A";6.9781297619;"f";"left";"up";-3;6;50;50;"-6";0;50;50;"risky mixed";"risky mixed";"loss";"gain";"loss";"gain";-3;6;-6;0;"[03framing.py, 01choiceDD.py, 01choiceLA.py, 03framing_block2.py, 04dsst.py, 05numeracy.py, 02demographics.py]";74;"w";2;4;5;5;"OA";33;33;1;2;0.285714285714286;FALSE;1.5;-3;4.5;3;3;1;0;"A";"A";"A";1;1;1;1
101;56;"A";5.00801938283;"f";"left";"up";-3;6;50;50;"(0.5 x 3) - (0.5 x 3)";0;100;0;"risky mixed";"complex safe";"loss";"gain";"gain";"gain";-3;6;0;0;"[03framing.py, 01choiceDD.py, 01choiceLA.py, 03framing_block2.py, 04dsst.py, 05numeracy.py, 02demographics.py]";74;"w";2;4;5;5;"OA";33;33;1;2;0.285714285714286;FALSE;1.5;0;4.5;0;3;NA;1;"A";"A";NA;1;1;1;NA
101;13;"A";3.51661753542;"j";"right";"up";-8;6;50;50;"0";0;100;0;"risky mixed";"simple safe";"loss";"gain";"gain";"gain";-8;6;0;0;"[03framing.py, 01choiceDD.py, 01choiceLA.py, 03framing_block2.py, 04dsst.py, 05numeracy.py, 02demographics.py]";74;"w";2;4;5;5;"OA";33;33;1;2;0.285714285714286;FALSE;-1;0;7;0;7;NA;1;"B";"A";NA;0;0;1;NA
101;3;"A";4.37235757942;"j";"right";"down";-5;6;50;50;"-3";0;100;0;"risky mixed";"simple safe";"loss";"gain";"loss";"gain";-5;6;-3;0;"[03framing.py, 01choiceDD.py, 01choiceLA.py, 03framing_block2.py, 04dsst.py, 05numeracy.py, 02demographics.py]";74;"w";2;4;5;5;"OA";33;33;1;2;0.285714285714286;FALSE;0.5;-3;5.5;0;11;0;1;"A";"A";"A";1;1;1;1
101;24;"A";11.1140810887;"j";"right";"down";-8;6;50;50;"-10";4;50;50;"risky mixed";"risky mixed";"loss";"gain";"loss";"gain";-8;6;-10;4;"[03framing.py, 01choiceDD.py, 01choiceLA.py, 03framing_block2.py, 04dsst.py, 05numeracy.py, 02demographics.py]";74;"w";2;4;5;5;"OA";33;33;1;2;0.285714285714286;FALSE;-1;-3;7;7;7;2.33333333333333;0;"A";"B";"A";0;1;0;1
101;29;"B";8.04983071885;"j";"left";"down";-8;6;50;50;"-7";7;50;50;"risky mixed";"risky mixed";"loss";"gain";"loss";"gain";-8;6;-7;7;"[03framing.py, 01choiceDD.py, 01choiceLA.py, 03framing_block2.py, 04dsst.py, 05numeracy.py, 02demographics.py]";74;"w";2;4;5;5;"OA";33;33;1;2;0.285714285714286;FALSE;-1;0;7;7;7;Inf;0;"B";"B";"B";1;1;1;1
101;33;"B";10.5316142939;"f";"right";"up";-4;6;50;50;"-6";12;50;50;"risky mixed";"risky mixed";"loss";"gain";"loss";"gain";-4;6;-6;12;"[03framing.py, 01choiceDD.py, 01choiceLA.py, 03framing_block2.py, 04dsst.py, 05numeracy.py, 02demographics.py]";74;"w";2;4;5;5;"OA";33;33;1;2;0.285714285714286;FALSE;1;3;5;9;5;3;0;"B";"B";"A";1;1;1;0
101;63;"A";6.3706478675;"j";"right";"down";-3;6;50;50;"(0.5 x 6) - (0.5 x 0)";0;100;0;"risky mixed";"complex safe";"loss";"gain";"gain";"gain";-3;6;3;0;"[03framing.py, 01choiceDD.py, 01choiceLA.py, 03framing_block2.py, 04dsst.py, 05numeracy.py, 02demographics.py]";74;"w";2;4;5;5;"OA";33;33;1;2;0.285714285714286;FALSE;1.5;3;4.5;0;3;0;1;"B";"A";"A";0;0;1;1
101;14;"A";2.85641218159;"j";"right";"up";-9;6;50;50;"0";0;100;0;"risky mixed";"simple safe";"loss";"gain";"gain";"gain";-9;6;0;0;"[03framing.py, 01choiceDD.py, 01choiceLA.py, 03framing_block2.py, 04dsst.py, 05numeracy.py, 02demographics.py]";74;"w";2;4;5;5;"OA";33;33;1;2;0.285714285714286;FALSE;-1.5;0;7.5;0;5;NA;1;"B";"A";NA;0;0;1;NA
101;19;"B";9.32299813264;"j";"left";"up";-7;6;50;50;"3";0;100;0;"risky mixed";"simple safe";"loss";"gain";"gain";"gain";-7;6;3;0;"[03framing.py, 01choiceDD.py, 01choiceLA.py, 03framing_block2.py, 04dsst.py, 05numeracy.py, 02demographics.py]";74;"w";2;4;5;5;"OA";33;33;1;2;0.285714285714286;FALSE;-0.5;3;6.5;0;13;0;1;"B";"A";"A";0;1;0;0
101;61;"A";5.70669200805;"j";"right";"down";-9;6;50;50;"(0.5 x 8) - (0.5 x 2)";0;100;0;"risky mixed";"complex safe";"loss";"gain";"gain";"gain";-9;6;3;0;"[03framing.py, 01choiceDD.py, 01choiceLA.py, 03framing_block2.py, 04dsst.py, 05numeracy.py, 02demographics.py]";74;"w";2;4;5;5;"OA";33;33;1;2;0.285714285714286;FALSE;-1.5;3;7.5;0;5;0;1;"B";"A";"A";0;0;1;1
101;52;"A";8.6343050607;"j";"right";"down";-8;6;50;50;"(0.5 x 7) - (0.5 x 7)";0;100;0;"risky mixed";"complex safe";"loss";"gain";"gain";"gain";-8;6;0;0;"[03framing.py, 01choiceDD.py, 01choiceLA.py, 03framing_block2.py, 04dsst.py, 05numeracy.py, 02demographics.py]";74;"w";2;4;5;5;"OA";33;33;1;2;0.285714285714286;FALSE;-1;0;7;0;7;NA;1;"B";"A";NA;0;0;1;NA
101;22;"B";7.28534734497;"f";"right";"up";-4;6;50;50;"-12";6;50;50;"risky mixed";"risky mixed";"loss";"gain";"loss";"gain";-4;6;-12;6;"[03framing.py, 01choiceDD.py, 01choiceLA.py, 03framing_block2.py, 04dsst.py, 05numeracy.py, 02demographics.py]";74;"w";2;4;5;5;"OA";33;33;1;2;0.285714285714286;FALSE;1;-3;5;9;5;3;0;"A";"B";"A";0;0;1;0
101;16;"B";5.44654345068;"f";"right";"up";-4;6;50;50;"3";0;100;0;"risky mixed";"simple safe";"loss";"gain";"gain";"gain";-4;6;3;0;"[03framing.py, 01choiceDD.py, 01choiceLA.py, 03framing_block2.py, 04dsst.py, 05numeracy.py, 02demographics.py]";74;"w";2;4;5;5;"OA";33;33;1;2;0.285714285714286;FALSE;1;3;5;0;5;0;1;"B";"A";"A";0;1;0;0
101;7;"A";3.93702131668;"j";"right";"up";-9;6;50;50;"-3";0;100;0;"risky mixed";"simple safe";"loss";"gain";"loss";"gain";-9;6;-3;0;"[03framing.py, 01choiceDD.py, 01choiceLA.py, 03framing_block2.py, 04dsst.py, 05numeracy.py, 02demographics.py]";74;"w";2;4;5;5;"OA";33;33;1;2;0.285714285714286;FALSE;-1.5;-3;7.5;0;5;0;1;"A";"A";"A";1;1;1;1
101;15;"B";5.30415999424;"j";"left";"up";-3;6;50;50;"3";0;100;0;"risky mixed";"simple safe";"loss";"gain";"gain";"gain";-3;6;3;0;"[03framing.py, 01choiceDD.py, 01choiceLA.py, 03framing_block2.py, 04dsst.py, 05numeracy.py, 02demographics.py]";74;"w";2;4;5;5;"OA";33;33;1;2;0.285714285714286;FALSE;1.5;3;4.5;0;3;0;1;"B";"A";"A";0;1;0;0
101;38;"A";5.07999601039;"j";"right";"up";-3;6;50;50;"-3";3;50;50;"risky mixed";"risky mixed";"loss";"gain";"loss";"gain";-3;6;-3;3;"[03framing.py, 01choiceDD.py, 01choiceLA.py, 03framing_block2.py, 04dsst.py, 05numeracy.py, 02demographics.py]";74;"w";2;4;5;5;"OA";33;33;1;2;0.285714285714286;FALSE;1.5;0;4.5;3;3;Inf;0;"A";"A";"B";1;1;1;0
101;25;"A";3.53647884124;"j";"right";"down";-4;6;50;50;"-9";9;50;50;"risky mixed";"risky mixed";"loss";"gain";"loss";"gain";-4;6;-9;9;"[03framing.py, 01choiceDD.py, 01choiceLA.py, 03framing_block2.py, 04dsst.py, 05numeracy.py, 02demographics.py]";74;"w";2;4;5;5;"OA";33;33;1;2;0.285714285714286;FALSE;1;0;5;9;5;Inf;0;"A";"B";"B";0;1;0;0
101;39;"B";9.86378325363;"f";"right";"up";-7;6;50;50;"-3";9;50;50;"risky mixed";"risky mixed";"loss";"gain";"loss";"gain";-7;6;-3;9;"[03framing.py, 01choiceDD.py, 01choiceLA.py, 03framing_block2.py, 04dsst.py, 05numeracy.py, 02demographics.py]";74;"w";2;4;5;5;"OA";33;33;1;2;0.285714285714286;FALSE;-0.5;3;6.5;6;13;2;0;"B";"A";"A";0;1;0;0
101;21;"A";7.84137829766;"j";"right";"up";-9;6;50;50;"3";0;100;0;"risky mixed";"simple safe";"loss";"gain";"gain";"gain";-9;6;3;0;"[03framing.py, 01choiceDD.py, 01choiceLA.py, 03framing_block2.py, 04dsst.py, 05numeracy.py, 02demographics.py]";74;"w";2;4;5;5;"OA";33;33;1;2;0.285714285714286;FALSE;-1.5;3;7.5;0;5;0;1;"B";"A";"A";0;0;1;1
101;1;"A";3.53256431853;"j";"right";"up";-3;6;50;50;"-3";0;100;0;"risky mixed";"simple safe";"loss";"gain";"loss";"gain";-3;6;-3;0;"[03framing.py, 01choiceDD.py, 01choiceLA.py, 03framing_block2.py, 04dsst.py, 05numeracy.py, 02demographics.py]";74;"w";2;4;5;5;"OA";33;33;1;2;0.285714285714286;FALSE;1.5;-3;4.5;0;3;0;1;"A";"A";"A";1;1;1;1
101;45;"A";7.84365846766;"f";"left";"down";-8;6;50;50;"(0.5 x 4) - (0.5 x 10)";0;100;0;"risky mixed";"complex safe";"loss";"gain";"loss";"gain";-8;6;-3;0;"[03framing.py, 01choiceDD.py, 01choiceLA.py, 03framing_block2.py, 04dsst.py, 05numeracy.py, 02demographics.py]";74;"w";2;4;5;5;"OA";33;33;1;2;0.285714285714286;FALSE;-1;-3;7;0;7;0;1;"A";"A";"A";1;1;1;1
101;57;"B";13.7268023871;"j";"left";"up";-4;6;50;50;"(0.5 x 12) - (0.5 x 6)";0;100;0;"risky mixed";"complex safe";"loss";"gain";"gain";"gain";-4;6;3;0;"[03framing.py, 01choiceDD.py, 01choiceLA.py, 03framing_block2.py, 04dsst.py, 05numeracy.py, 02demographics.py]";74;"w";2;4;5;5;"OA";33;33;1;2;0.285714285714286;FALSE;1;3;5;0;5;0;1;"B";"A";"A";0;1;0;0
101;51;"A";6.36642221102;"j";"right";"up";-5;6;50;50;"(0.5 x 8) - (0.5 x 8)";0;100;0;"risky mixed";"complex safe";"loss";"gain";"gain";"gain";-5;6;0;0;"[03framing.py, 01choiceDD.py, 01choiceLA.py, 03framing_block2.py, 04dsst.py, 05numeracy.py, 02demographics.py]";74;"w";2;4;5;5;"OA";33;33;1;2;0.285714285714286;FALSE;0.5;0;5.5;0;11;NA;1;"A";"A";NA;1;1;1;NA
101;31;"B";7.81155821775;"j";"left";"down";-7;6;50;50;"-6";6;50;50;"risky mixed";"risky mixed";"loss";"gain";"loss";"gain";-7;6;-6;6;"[03framing.py, 01choiceDD.py, 01choiceLA.py, 03framing_block2.py, 04dsst.py, 05numeracy.py, 02demographics.py]";74;"w";2;4;5;5;"OA";33;33;1;2;0.285714285714286;FALSE;-0.5;0;6.5;6;13;Inf;0;"B";"A";"B";0;1;0;1
101;49;"A";9.77662507134;"f";"left";"down";-3;6;50;50;"(0.5 x 0) - (0.5 x 6)";0;100;0;"risky mixed";"complex safe";"loss";"gain";"loss";"gain";-3;6;-3;0;"[03framing.py, 01choiceDD.py, 01choiceLA.py, 03framing_block2.py, 04dsst.py, 05numeracy.py, 02demographics.py]";74;"w";2;4;5;5;"OA";33;33;1;2;0.285714285714286;FALSE;1.5;-3;4.5;0;3;0;1;"A";"A";"A";1;1;1;1
101;55;"A";6.2064523547;"f";"left";"up";-6;6;50;50;"(0.5 x 4) - (0.5 x 4)";0;100;0;"risky mixed";"complex safe";"loss";"gain";"gain";"gain";-6;6;0;0;"[03framing.py, 01choiceDD.py, 01choiceLA.py, 03framing_block2.py, 04dsst.py, 05numeracy.py, 02demographics.py]";74;"w";2;4;5;5;"OA";33;33;1;2;0.285714285714286;FALSE;0;0;6;0;Inf;NA;1;"B";"A";NA;0;0;1;NA
101;48;"A";16.6989081227;"f";"left";"down";-6;6;50;50;"(0.5 x 1) - (0.5 x 7)";0;100;0;"risky mixed";"complex safe";"loss";"gain";"loss";"gain";-6;6;-3;0;"[03framing.py, 01choiceDD.py, 01choiceLA.py, 03framing_block2.py, 04dsst.py, 05numeracy.py, 02demographics.py]";74;"w";2;4;5;5;"OA";33;33;1;2;0.285714285714286;FALSE;0;-3;6;0;Inf;0;1;"A";"A";"A";1;1;1;1
101;5;"A";3.0430916113;"f";"left";"down";-7;6;50;50;"-3";0;100;0;"risky mixed";"simple safe";"loss";"gain";"loss";"gain";-7;6;-3;0;"[03framing.py, 01choiceDD.py, 01choiceLA.py, 03framing_block2.py, 04dsst.py, 05numeracy.py, 02demographics.py]";74;"w";2;4;5;5;"OA";33;33;1;2;0.285714285714286;FALSE;-0.5;-3;6.5;0;13;0;1;"A";"A";"A";1;1;1;1
101;6;"A";3.77424239066;"f";"left";"up";-8;6;50;50;"-3";0;100;0;"risky mixed";"simple safe";"loss";"gain";"loss";"gain";-8;6;-3;0;"[03framing.py, 01choiceDD.py, 01choiceLA.py, 03framing_block2.py, 04dsst.py, 05numeracy.py, 02demographics.py]";74;"w";2;4;5;5;"OA";33;33;1;2;0.285714285714286;FALSE;-1;-3;7;0;7;0;1;"A";"A";"A";1;1;1;1
102;15;"B";7.90585378354;"f";"right";"down";-3;6;50;50;"3";0;100;0;"risky mixed";"simple safe";"loss";"gain";"gain";"gain";-3;6;3;0;"[03framing.py, 01choiceLA.py, 01choiceDD.py, 03framing_block2.py, 05numeracy.py, 04dsst.py, 02demographics.py]";73;"w";6;4;6;4;"OA";28;28;1;3;0.428571428571429;FALSE;1.5;3;4.5;0;3;0;1;"B";"A";"A";0;1;0;0
102;60;"B";15.7063674459;"j";"left";"down";-7;6;50;50;"(0.5 x 9) - (0.5 x 3)";0;100;0;"risky mixed";"complex safe";"loss";"gain";"gain";"gain";-7;6;3;0;"[03framing.py, 01choiceLA.py, 01choiceDD.py, 03framing_block2.py, 05numeracy.py, 04dsst.py, 02demographics.py]";73;"w";6;4;6;4;"OA";28;28;1;3;0.428571428571429;FALSE;-0.5;3;6.5;0;13;0;1;"B";"A";"A";0;1;0;0
102;58;"A";20.6022726927;"j";"right";"down";-5;6;50;50;"(0.5 x 11) - (0.5 x 5)";0;100;0;"risky mixed";"complex safe";"loss";"gain";"gain";"gain";-5;6;3;0;"[03framing.py, 01choiceLA.py, 01choiceDD.py, 03framing_block2.py, 05numeracy.py, 04dsst.py, 02demographics.py]";73;"w";6;4;6;4;"OA";28;28;1;3;0.428571428571429;FALSE;0.5;3;5.5;0;11;0;1;"B";"A";"A";0;0;1;1
102;25;"A";28.726306355;"j";"right";"up";-4;6;50;50;"-9";9;50;50;"risky mixed";"risky mixed";"loss";"gain";"loss";"gain";-4;6;-9;9;"[03framing.py, 01choiceLA.py, 01choiceDD.py, 03framing_block2.py, 05numeracy.py, 04dsst.py, 02demographics.py]";73;"w";6;4;6;4;"OA";28;28;1;3;0.428571428571429;FALSE;1;0;5;9;5;Inf;0;"A";"B";"B";0;1;0;0
102;8;"A";10.4132308225;"f";"left";"down";-3;6;50;50;"0";0;100;0;"risky mixed";"simple safe";"loss";"gain";"gain";"gain";-3;6;0;0;"[03framing.py, 01choiceLA.py, 01choiceDD.py, 03framing_block2.py, 05numeracy.py, 04dsst.py, 02demographics.py]";73;"w";6;4;6;4;"OA";28;28;1;3;0.428571428571429;FALSE;1.5;0;4.5;0;3;NA;1;"A";"A";NA;1;1;1;NA
102;21;"B";15.8089356191;"f";"right";"up";-9;6;50;50;"3";0;100;0;"risky mixed";"simple safe";"loss";"gain";"gain";"gain";-9;6;3;0;"[03framing.py, 01choiceLA.py, 01choiceDD.py, 03framing_block2.py, 05numeracy.py, 04dsst.py, 02demographics.py]";73;"w";6;4;6;4;"OA";28;28;1;3;0.428571428571429;FALSE;-1.5;3;7.5;0;5;0;1;"B";"A";"A";0;1;0;0
102;20;"B";17.1009745455;"j";"left";"up";-8;6;50;50;"3";0;100;0;"risky mixed";"simple safe";"loss";"gain";"gain";"gain";-8;6;3;0;"[03framing.py, 01choiceLA.py, 01choiceDD.py, 03framing_block2.py, 05numeracy.py, 04dsst.py, 02demographics.py]";73;"w";6;4;6;4;"OA";28;28;1;3;0.428571428571429;FALSE;-1;3;7;0;7;0;1;"B";"A";"A";0;1;0;0
102;26;"A";29.2851598961;"j";"right";"down";-7;6;50;50;"-9";3;50;50;"risky mixed";"risky mixed";"loss";"gain";"loss";"gain";-7;6;-9;3;"[03framing.py, 01choiceLA.py, 01choiceDD.py, 03framing_block2.py, 05numeracy.py, 04dsst.py, 02demographics.py]";73;"w";6;4;6;4;"OA";28;28;1;3;0.428571428571429;FALSE;-0.5;-3;6.5;6;13;2;0;"A";"A";"A";1;1;1;1
102;35;"B";16.5653067359;"j";"left";"up";-5;6;50;50;"-5";11;50;50;"risky mixed";"risky mixed";"loss";"gain";"loss";"gain";-5;6;-5;11;"[03framing.py, 01choiceLA.py, 01choiceDD.py, 03framing_block2.py, 05numeracy.py, 04dsst.py, 02demographics.py]";73;"w";6;4;6;4;"OA";28;28;1;3;0.428571428571429;FALSE;0.5;3;5.5;8;11;2.66666666666667;0;"B";"B";"A";1;1;1;0
102;45;"A";12.322820987;"j";"right";"down";-8;6;50;50;"(0.5 x 4) - (0.5 x 10)";0;100;0;"risky mixed";"complex safe";"loss";"gain";"loss";"gain";-8;6;-3;0;"[03framing.py, 01choiceLA.py, 01choiceDD.py, 03framing_block2.py, 05numeracy.py, 04dsst.py, 02demographics.py]";73;"w";6;4;6;4;"OA";28;28;1;3;0.428571428571429;FALSE;-1;-3;7;0;7;0;1;"A";"A";"A";1;1;1;1
102;54;"A";15.2743743723;"j";"right";"up";-9;6;50;50;"(0.5 x 5) - (0.5 x 5)";0;100;0;"risky mixed";"complex safe";"loss";"gain";"gain";"gain";-9;6;0;0;"[03framing.py, 01choiceLA.py, 01choiceDD.py, 03framing_block2.py, 05numeracy.py, 04dsst.py, 02demographics.py]";73;"w";6;4;6;4;"OA";28;28;1;3;0.428571428571429;FALSE;-1.5;0;7.5;0;5;NA;1;"B";"A";NA;0;0;1;NA
102;27;"A";20.5229667186;"f";"left";"up";-5;6;50;50;"-8";8;50;50;"risky mixed";"risky mixed";"loss";"gain";"loss";"gain";-5;6;-8;8;"[03framing.py, 01choiceLA.py, 01choiceDD.py, 03framing_block2.py, 05numeracy.py, 04dsst.py, 02demographics.py]";73;"w";6;4;6;4;"OA";28;28;1;3;0.428571428571429;FALSE;0.5;0;5.5;8;11;Inf;0;"A";"B";"B";0;1;0;0
102;38;"A";15.0344184242;"f";"left";"down";-3;6;50;50;"-3";3;50;50;"risky mixed";"risky mixed";"loss";"gain";"loss";"gain";-3;6;-3;3;"[03framing.py, 01choiceLA.py, 01choiceDD.py, 03framing_block2.py, 05numeracy.py, 04dsst.py, 02demographics.py]";73;"w";6;4;6;4;"OA";28;28;1;3;0.428571428571429;FALSE;1.5;0;4.5;3;3;Inf;0;"A";"A";"B";1;1;1;0
102;11;"B";21.9252033939;"j";"left";"down";-6;6;50;50;"0";0;100;0;"risky mixed";"simple safe";"loss";"gain";"gain";"gain";-6;6;0;0;"[03framing.py, 01choiceLA.py, 01choiceDD.py, 03framing_block2.py, 05numeracy.py, 04dsst.py, 02demographics.py]";73;"w";6;4;6;4;"OA";28;28;1;3;0.428571428571429;FALSE;0;0;6;0;Inf;NA;1;"B";"A";NA;0;1;0;NA
102;37;"B";24.9237552208;"f";"right";"down";-8;6;50;50;"-4";10;50;50;"risky mixed";"risky mixed";"loss";"gain";"loss";"gain";-8;6;-4;10;"[03framing.py, 01choiceLA.py, 01choiceDD.py, 03framing_block2.py, 05numeracy.py, 04dsst.py, 02demographics.py]";73;"w";6;4;6;4;"OA";28;28;1;3;0.428571428571429;FALSE;-1;3;7;7;7;2.33333333333333;0;"B";"B";"A";1;1;1;0
102;16;"B";6.52282625111;"f";"right";"up";-4;6;50;50;"3";0;100;0;"risky mixed";"simple safe";"loss";"gain";"gain";"gain";-4;6;3;0;"[03framing.py, 01choiceLA.py, 01choiceDD.py, 03framing_block2.py, 05numeracy.py, 04dsst.py, 02demographics.py]";73;"w";6;4;6;4;"OA";28;28;1;3;0.428571428571429;FALSE;1;3;5;0;5;0;1;"B";"A";"A";0;1;0;0
102;44;"A";46.1226528139;"f";"left";"up";-5;6;50;50;"(0.5 x 5) - (0.5 x 11)";0;100;0;"risky mixed";"complex safe";"loss";"gain";"loss";"gain";-5;6;-3;0;"[03framing.py, 01choiceLA.py, 01choiceDD.py, 03framing_block2.py, 05numeracy.py, 04dsst.py, 02demographics.py]";73;"w";6;4;6;4;"OA";28;28;1;3;0.428571428571429;FALSE;0.5;-3;5.5;0;11;0;1;"A";"A";"A";1;1;1;1
102;59;"B";23.3688788225;"j";"left";"up";-8;6;50;50;"(0.5 x 10) - (0.5 x 4)";0;100;0;"risky mixed";"complex safe";"loss";"gain";"gain";"gain";-8;6;3;0;"[03framing.py, 01choiceLA.py, 01choiceDD.py, 03framing_block2.py, 05numeracy.py, 04dsst.py, 02demographics.py]";73;"w";6;4;6;4;"OA";28;28;1;3;0.428571428571429;FALSE;-1;3;7;0;7;0;1;"B";"A";"A";0;1;0;0
102;29;"B";31.8301276537;"f";"right";"up";-8;6;50;50;"-7";7;50;50;"risky mixed";"risky mixed";"loss";"gain";"loss";"gain";-8;6;-7;7;"[03framing.py, 01choiceLA.py, 01choiceDD.py, 03framing_block2.py, 05numeracy.py, 04dsst.py, 02demographics.py]";73;"w";6;4;6;4;"OA";28;28;1;3;0.428571428571429;FALSE;-1;0;7;7;7;Inf;0;"B";"B";"B";1;1;1;1
102;51;"A";22.6731284502;"j";"right";"down";-5;6;50;50;"(0.5 x 8) - (0.5 x 8)";0;100;0;"risky mixed";"complex safe";"loss";"gain";"gain";"gain";-5;6;0;0;"[03framing.py, 01choiceLA.py, 01choiceDD.py, 03framing_block2.py, 05numeracy.py, 04dsst.py, 02demographics.py]";73;"w";6;4;6;4;"OA";28;28;1;3;0.428571428571429;FALSE;0.5;0;5.5;0;11;NA;1;"A";"A";NA;1;1;1;NA
102;49;"A";15.30624471;"j";"right";"up";-3;6;50;50;"(0.5 x 0) - (0.5 x 6)";0;100;0;"risky mixed";"complex safe";"loss";"gain";"loss";"gain";-3;6;-3;0;"[03framing.py, 01choiceLA.py, 01choiceDD.py, 03framing_block2.py, 05numeracy.py, 04dsst.py, 02demographics.py]";73;"w";6;4;6;4;"OA";28;28;1;3;0.428571428571429;FALSE;1.5;-3;4.5;0;3;0;1;"A";"A";"A";1;1;1;1
102;47;"A";15.1462862684;"j";"right";"down";-9;6;50;50;"(0.5 x 2) - (0.5 x 8)";0;100;0;"risky mixed";"complex safe";"loss";"gain";"loss";"gain";-9;6;-3;0;"[03framing.py, 01choiceLA.py, 01choiceDD.py, 03framing_block2.py, 05numeracy.py, 04dsst.py, 02demographics.py]";73;"w";6;4;6;4;"OA";28;28;1;3;0.428571428571429;FALSE;-1.5;-3;7.5;0;5;0;1;"A";"A";"A";1;1;1;1
102;56;"A";18.2376943377;"f";"left";"down";-3;6;50;50;"(0.5 x 3) - (0.5 x 3)";0;100;0;"risky mixed";"complex safe";"loss";"gain";"gain";"gain";-3;6;0;0;"[03framing.py, 01choiceLA.py, 01choiceDD.py, 03framing_block2.py, 05numeracy.py, 04dsst.py, 02demographics.py]";73;"w";6;4;6;4;"OA";28;28;1;3;0.428571428571429;FALSE;1.5;0;4.5;0;3;NA;1;"A";"A";NA;1;1;1;NA
102;17;"B";24.1843152901;"f";"right";"down";-5;6;50;50;"3";0;100;0;"risky mixed";"simple safe";"loss";"gain";"gain";"gain";-5;6;3;0;"[03framing.py, 01choiceLA.py, 01choiceDD.py, 03framing_block2.py, 05numeracy.py, 04dsst.py, 02demographics.py]";73;"w";6;4;6;4;"OA";28;28;1;3;0.428571428571429;FALSE;0.5;3;5.5;0;11;0;1;"B";"A";"A";0;1;0;0
102;10;"B";13.5086985974;"j";"left";"up";-5;6;50;50;"0";0;100;0;"risky mixed";"simple safe";"loss";"gain";"gain";"gain";-5;6;0;0;"[03framing.py, 01choiceLA.py, 01choiceDD.py, 03framing_block2.py, 05numeracy.py, 04dsst.py, 02demographics.py]";73;"w";6;4;6;4;"OA";28;28;1;3;0.428571428571429;FALSE;0.5;0;5.5;0;11;NA;1;"A";"A";NA;1;0;0;NA
102;62;"B";16.9890537835;"f";"right";"down";-6;6;50;50;"(0.5 x 7) - (0.5 x 1)";0;100;0;"risky mixed";"complex safe";"loss";"gain";"gain";"gain";-6;6;3;0;"[03framing.py, 01choiceLA.py, 01choiceDD.py, 03framing_block2.py, 05numeracy.py, 04dsst.py, 02demographics.py]";73;"w";6;4;6;4;"OA";28;28;1;3;0.428571428571429;FALSE;0;3;6;0;Inf;0;1;"B";"A";"A";0;1;0;0
102;22;"A";20.1856670476;"f";"left";"up";-4;6;50;50;"-12";6;50;50;"risky mixed";"risky mixed";"loss";"gain";"loss";"gain";-4;6;-12;6;"[03framing.py, 01choiceLA.py, 01choiceDD.py, 03framing_block2.py, 05numeracy.py, 04dsst.py, 02demographics.py]";73;"w";6;4;6;4;"OA";28;28;1;3;0.428571428571429;FALSE;1;-3;5;9;5;3;0;"A";"B";"A";0;1;0;1
102;9;"B";13.0782420779;"j";"left";"down";-4;6;50;50;"0";0;100;0;"risky mixed";"simple safe";"loss";"gain";"gain";"gain";-4;6;0;0;"[03framing.py, 01choiceLA.py, 01choiceDD.py, 03framing_block2.py, 05numeracy.py, 04dsst.py, 02demographics.py]";73;"w";6;4;6;4;"OA";28;28;1;3;0.428571428571429;FALSE;1;0;5;0;5;NA;1;"A";"A";NA;1;0;0;NA
102;61;"B";11.4718875152;"j";"left";"down";-9;6;50;50;"(0.5 x 8) - (0.5 x 2)";0;100;0;"risky mixed";"complex safe";"loss";"gain";"gain";"gain";-9;6;3;0;"[03framing.py, 01choiceLA.py, 01choiceDD.py, 03framing_block2.py, 05numeracy.py, 04dsst.py, 02demographics.py]";73;"w";6;4;6;4;"OA";28;28;1;3;0.428571428571429;FALSE;-1.5;3;7.5;0;5;0;1;"B";"A";"A";0;1;0;0
102;4;"A";13.4013874978;"f";"left";"up";-6;6;50;50;"-3";0;100;0;"risky mixed";"simple safe";"loss";"gain";"loss";"gain";-6;6;-3;0;"[03framing.py, 01choiceLA.py, 01choiceDD.py, 03framing_block2.py, 05numeracy.py, 04dsst.py, 02demographics.py]";73;"w";6;4;6;4;"OA";28;28;1;3;0.428571428571429;FALSE;0;-3;6;0;Inf;0;1;"A";"A";"A";1;1;1;1
